File: data/processed/processed_data/2024-10-11/2024-10-11_methylcellulosepowder_n_n_n_solid_10000_0_5.csv
Pixels #,Intensity (a.u.),Wavelength (nm),Raman shift (cm-1),Raman shift (cm-1) adjusted,Filtered Intensity (a.u.),Baselined Filtered Intensity (a.u.)
0.0,0.819129,543.803,407.968,406.929,0.818456,-0.0371213
3.0,0.816657,543.967,413.541,412.499,0.818751,-0.0368265
6.0,0.818168,544.132,419.11,418.065,0.8188,-0.036778
9.0,0.821691,544.297,424.676,423.628,0.819396,-0.0361828
12.0,0.824034,544.462,430.238,429.188,0.818235,-0.037345
15.0,0.821461,544.627,435.797,434.744,0.818235,-0.0373464
18.0,0.820554,544.792,441.353,440.297,0.81781,-0.0377731
21.0,0.819304,544.957,446.905,445.847,0.817492,-0.0380931
24.0,0.816973,545.121,452.454,451.393,0.818012,-0.0375754
27.0,0.819272,545.286,457.999,456.936,0.81841,-0.0371801
30.0,0.819287,545.451,463.542,462.476,0.819638,-0.035955
33.0,0.820489,545.616,469.08,468.012,0.822282,-0.0333143
36.0,0.820644,545.781,474.616,473.545,0.821749,-0.0338508
39.0,0.85288,545.946,480.148,479.075,0.825352,-0.0302516
42.0,0.82711,546.11,485.677,484.601,0.828991,-0.0266166
45.0,0.843129,546.275,491.202,490.124,0.843129,-0.0124828
48.0,0.873287,546.44,496.725,495.643,0.873287,0.0176709
51.0,0.910698,546.605,502.243,501.16,0.910698,0.0550778
54.0,0.968944,546.77,507.759,506.672,0.968944,0.11332
57.0,0.996522,546.935,513.271,512.182,0.996522,0.140895
60.0,1.02662,547.099,518.78,517.688,1.02662,0.170992
63.0,1.04341,547.264,524.285,523.191,1.04341,0.187782
66.0,1.06191,547.429,529.788,528.691,1.06191,0.206282
69.0,1.07691,547.594,535.287,534.187,1.07691,0.221282
72.0,1.08963,547.759,540.782,539.68,1.0911,0.235472
75.0,1.09698,547.924,546.275,545.17,1.09698,0.241352
78.0,1.10327,548.088,551.763,550.656,1.10327,0.247642
81.0,1.10618,548.253,557.249,556.139,1.10553,0.249902
84.0,1.10651,548.418,562.732,561.619,1.10651,0.250882
87.0,1.10821,548.583,568.211,567.096,1.11183,0.256202
90.0,1.11203,548.748,573.686,572.569,1.11203,0.256402
93.0,1.11414,548.913,579.159,578.039,1.1154,0.259772
96.0,1.11907,549.078,584.628,583.506,1.11907,0.263442
99.0,1.12231,549.242,590.094,588.969,1.12192,0.266292
102.0,1.12516,549.407,595.557,594.429,1.12444,0.268812
105.0,1.12649,549.572,601.016,599.886,1.12667,0.271042
108.0,1.12551,549.737,606.472,605.339,1.12551,0.269882
111.0,1.12296,549.902,611.925,610.79,1.12368,0.268052
114.0,1.12068,550.067,617.375,616.237,1.1235,0.267872
117.0,1.11983,550.231,622.821,621.68,1.12111,0.265482
120.0,1.11822,550.396,628.264,627.121,1.1207,0.265072
123.0,1.11874,550.561,633.704,632.558,1.11874,0.263112
126.0,1.11541,550.726,639.14,637.992,1.11676,0.261132
129.0,1.11609,550.891,644.574,643.423,1.11676,0.261132
132.0,1.12221,551.056,650.004,648.85,1.11905,0.263422
135.0,1.11926,551.22,655.431,654.274,1.12034,0.264712
138.0,1.12224,551.385,660.854,659.695,1.12224,0.266612
141.0,1.12544,551.55,666.274,665.113,1.12753,0.271902
144.0,1.13284,551.715,671.691,670.528,1.13054,0.274912
147.0,1.13337,551.88,677.105,675.939,1.13485,0.279222
150.0,1.14251,552.045,682.516,681.347,1.14317,0.287542
153.0,1.14771,552.209,687.923,686.752,1.149,0.293372
156.0,1.15671,552.374,693.327,692.153,1.15755,0.301922
159.0,1.17439,552.539,698.728,697.552,1.16881,0.313182
162.0,1.1734,552.704,704.126,702.947,1.1734,0.317772
165.0,1.18181,552.869,709.52,708.339,1.18181,0.326182
168.0,1.1926,553.034,714.912,713.727,1.1926,0.336972
171.0,1.20222,553.199,720.3,719.113,1.20351,0.347882
174.0,1.21851,553.363,725.684,724.495,1.21851,0.362882
177.0,1.23046,553.528,731.066,729.874,1.23046,0.374832
180.0,1.2472,553.693,736.444,735.25,1.2472,0.391572
183.0,1.26297,553.858,741.82,740.623,1.26297,0.407342
186.0,1.28137,554.023,747.192,745.992,1.28416,0.428532
189.0,1.30004,554.188,752.561,751.359,1.30004,0.444412
192.0,1.32466,554.352,757.926,756.722,1.32466,0.469032
195.0,1.34573,554.517,763.289,762.082,1.34573,0.490102
198.0,1.37026,554.682,768.648,767.438,1.37026,0.514632
201.0,1.3994,554.847,774.004,772.792,1.3994,0.543772
204.0,1.43116,555.012,779.357,778.142,1.43116,0.575532
207.0,1.46489,555.177,784.706,783.489,1.46489,0.609262
210.0,1.50414,555.341,790.053,788.833,1.50414,0.648512
213.0,1.54322,555.506,795.396,794.174,1.54322,0.687592
216.0,1.58824,555.671,800.737,799.512,1.58824,0.732612
219.0,1.62995,555.836,806.074,804.846,1.62995,0.774322
222.0,1.68044,556.001,811.407,810.178,1.68044,0.824812
225.0,1.73451,556.166,816.738,815.506,1.73451,0.878882
228.0,1.78291,556.33,822.066,820.831,1.78291,0.927282
231.0,1.84178,556.495,827.39,826.153,1.84178,0.986152
234.0,1.89137,556.66,832.711,831.472,1.89137,1.03574
237.0,1.94058,556.825,838.029,836.787,1.94058,1.08495
240.0,1.9908,556.99,843.344,842.1,1.9908,1.13517
243.0,2.03871,557.155,848.656,847.409,2.03871,1.18308
246.0,2.08682,557.32,853.965,852.715,2.08682,1.23119
249.0,2.14026,557.484,859.27,858.018,2.13986,1.28423
252.0,2.16586,557.649,864.572,863.318,2.16586,1.31023
255.0,2.19924,557.814,869.872,868.615,2.19924,1.34361
258.0,2.2281,557.979,875.168,873.908,2.2281,1.37247
261.0,2.2555,558.144,880.461,879.199,2.2555,1.39987
264.0,2.28096,558.309,885.751,884.486,2.28096,1.42533
267.0,2.30095,558.473,891.037,889.77,2.30095,1.44532
270.0,2.31704,558.638,896.321,895.051,2.31704,1.46141
273.0,2.33544,558.803,901.601,900.329,2.32775,1.47212
276.0,2.33477,558.968,906.879,905.604,2.33477,1.47914
279.0,2.34427,559.133,912.153,910.876,2.34427,1.48864
282.0,2.35141,559.298,917.424,916.145,2.35141,1.49578
285.0,2.35492,559.462,922.692,921.41,2.35458,1.49895
288.0,2.36126,559.627,927.957,926.673,2.35944,1.50381
291.0,2.36133,559.792,933.219,931.932,2.36495,1.50932
294.0,2.36721,559.957,938.478,937.188,2.36721,1.51158
297.0,2.36929,560.122,943.733,942.441,2.37149,1.51586
300.0,2.36707,560.287,948.986,947.691,2.37213,1.5165
303.0,2.36692,560.452,954.235,952.938,2.37213,1.5165
306.0,2.37426,560.616,959.482,958.182,2.37167,1.51604
309.0,2.37416,560.781,964.725,963.423,2.37167,1.51604
312.0,2.37222,560.946,969.965,968.661,2.37222,1.51659
315.0,2.37527,561.111,975.202,973.896,2.38129,1.52566
318.0,2.38226,561.276,980.436,979.127,2.38395,1.52832
321.0,2.38538,561.441,985.667,984.356,2.38538,1.52975
324.0,2.3906,561.605,990.895,989.581,2.39306,1.53743
327.0,2.39974,561.77,996.12,994.803,2.39974,1.54411
330.0,2.40887,561.935,1001.34,1000.02,2.40887,1.55324
333.0,2.41502,562.1,1006.56,1005.24,2.41116,1.55553
336.0,2.41859,562.265,1011.78,1010.45,2.42158,1.56595
339.0,2.4353,562.43,1016.99,1015.66,2.43164,1.57601
342.0,2.43337,562.594,1022.2,1020.87,2.43398,1.57835
345.0,2.44277,562.759,1027.4,1026.07,2.44277,1.58714
348.0,2.45251,562.924,1032.61,1031.27,2.45236,1.59673
351.0,2.46421,563.089,1037.81,1036.47,2.45975,1.60412
354.0,2.46569,563.254,1043.01,1041.67,2.46648,1.61085
357.0,2.4729,563.419,1048.2,1046.86,2.4729,1.61727
360.0,2.47838,563.583,1053.39,1052.05,2.47838,1.62275
363.0,2.48695,563.748,1058.58,1057.23,2.48351,1.62788
366.0,2.48887,563.913,1063.77,1062.42,2.49061,1.63498
369.0,2.50051,564.078,1068.95,1067.6,2.49515,1.63952
372.0,2.49495,564.243,1074.13,1072.77,2.49875,1.64312
375.0,2.49898,564.408,1079.3,1077.95,2.50112,1.64549
378.0,2.51147,564.573,1084.48,1083.12,2.50522,1.64959
381.0,2.50885,564.737,1089.65,1088.28,2.50885,1.65322
384.0,2.50934,564.902,1094.81,1093.45,2.51071,1.65508
387.0,2.51766,565.067,1099.98,1098.61,2.51487,1.65924
390.0,2.52037,565.232,1105.14,1103.77,2.51487,1.65924
393.0,2.51802,565.397,1110.3,1108.93,2.51802,1.66239
396.0,2.52171,565.562,1115.45,1114.08,2.52097,1.66534
399.0,2.53178,565.726,1120.6,1119.23,2.52585,1.67022
402.0,2.52536,565.891,1125.75,1124.37,2.52546,1.66983
405.0,2.54048,566.056,1130.9,1129.52,2.52803,1.6724
408.0,2.53556,566.221,1136.04,1134.66,2.53093,1.6753
411.0,2.53486,566.386,1141.18,1139.8,2.53574,1.68011
414.0,2.5371,566.551,1146.32,1144.93,2.539,1.68337
417.0,2.54297,566.715,1151.45,1150.06,2.54246,1.68683
420.0,2.54807,566.88,1156.58,1155.19,2.54807,1.69244
423.0,2.55235,567.045,1161.71,1160.32,2.55195,1.69632
426.0,2.55752,567.21,1166.84,1165.44,2.55752,1.70189
429.0,2.55729,567.375,1171.96,1170.56,2.55944,1.70381
432.0,2.56244,567.54,1177.08,1175.68,2.56526,1.70963
435.0,2.56391,567.704,1182.19,1180.79,2.57082,1.71519
438.0,2.56881,567.869,1187.31,1185.9,2.57019,1.71456
441.0,2.57845,568.034,1192.42,1191.01,2.5773,1.72167
444.0,2.58367,568.199,1197.52,1196.11,2.58099,1.72536
447.0,2.59031,568.364,1202.63,1201.21,2.58476,1.72913
450.0,2.59174,568.529,1207.73,1206.31,2.58984,1.73421
453.0,2.60212,568.694,1212.83,1211.41,2.59656,1.74093
456.0,2.60098,568.858,1217.92,1216.5,2.60098,1.74535
459.0,2.60682,569.023,1223.02,1221.59,2.60639,1.75076
462.0,2.61097,569.188,1228.11,1226.68,2.6107,1.75507
465.0,2.61359,569.353,1233.19,1231.76,2.61313,1.7575
468.0,2.6127,569.518,1238.28,1236.85,2.61313,1.7575
471.0,2.61787,569.683,1243.36,1241.92,2.61787,1.76224
474.0,2.62394,569.847,1248.43,1247,2.62241,1.76678
477.0,2.62173,570.012,1253.51,1252.07,2.6253,1.76967
480.0,2.62771,570.177,1258.58,1257.14,2.62771,1.77208
483.0,2.63498,570.342,1263.65,1262.21,2.63028,1.77465
486.0,2.63478,570.507,1268.72,1267.27,2.63478,1.77915
489.0,2.63859,570.672,1273.78,1272.33,2.63859,1.78296
492.0,2.63859,570.836,1278.84,1277.39,2.64179,1.78616
495.0,2.64584,571.001,1283.9,1282.44,2.64584,1.79021
498.0,2.64643,571.166,1288.95,1287.5,2.64643,1.7908
501.0,2.65367,571.331,1294,1292.55,2.65367,1.79804
504.0,2.6513,571.496,1299.05,1297.59,2.65695,1.80132
507.0,2.65933,571.661,1304.1,1302.63,2.65956,1.80393
510.0,2.66178,571.825,1309.14,1307.67,2.66178,1.80615
513.0,2.67251,571.99,1314.18,1312.71,2.66941,1.81378
516.0,2.66777,572.155,1319.22,1317.75,2.6728,1.81717
519.0,2.68228,572.32,1324.25,1322.78,2.6796,1.82397
522.0,2.67783,572.485,1329.28,1327.81,2.68358,1.82795
525.0,2.6919,572.65,1334.31,1332.83,2.6919,1.83627
528.0,2.68949,572.815,1339.33,1337.86,2.6933,1.83767
531.0,2.69318,572.979,1344.36,1342.88,2.69355,1.83792
534.0,2.7049,573.144,1349.38,1347.89,2.7049,1.84927
537.0,2.70816,573.309,1354.39,1352.91,2.70673,1.8511
540.0,2.71403,573.474,1359.41,1357.92,2.71403,1.8584
543.0,2.71391,573.639,1364.42,1362.93,2.71566,1.86003
546.0,2.72051,573.804,1369.43,1367.93,2.72119,1.86556
549.0,2.72606,573.968,1374.43,1372.94,2.72466,1.86903
552.0,2.72596,574.133,1379.43,1377.94,2.72633,1.8707
555.0,2.72776,574.298,1384.43,1382.93,2.72838,1.87275
558.0,2.7268,574.463,1389.43,1387.93,2.73303,1.8774
561.0,2.73253,574.628,1394.42,1392.92,2.73387,1.87824
564.0,2.73798,574.793,1399.41,1397.91,2.73628,1.88065
567.0,2.73655,574.957,1404.4,1402.89,2.73655,1.88092
570.0,2.73828,575.122,1409.39,1407.87,2.74043,1.8848
573.0,2.75887,575.287,1414.37,1412.85,2.74324,1.88761
576.0,2.74616,575.452,1419.35,1417.83,2.74645,1.89082
579.0,2.75449,575.617,1424.32,1422.81,2.75074,1.89511
582.0,2.75023,575.782,1429.3,1427.78,2.75074,1.89511
585.0,2.77054,575.946,1434.27,1432.74,2.75694,1.90131
588.0,2.76327,576.111,1439.24,1437.71,2.76327,1.90764
591.0,2.76335,576.276,1444.2,1442.67,2.76438,1.90875
594.0,2.77087,576.441,1449.16,1447.63,2.77087,1.91524
597.0,2.77358,576.606,1454.12,1452.59,2.77501,1.91938
600.0,2.78395,576.771,1459.08,1457.54,2.7771,1.92147
603.0,2.78357,576.936,1464.03,1462.5,2.78315,1.92752
606.0,2.79486,577.1,1468.98,1467.44,2.78995,1.93432
609.0,2.78919,577.265,1473.93,1472.39,2.78995,1.93432
612.0,2.79001,577.43,1478.88,1477.33,2.79001,1.93438
615.0,2.79257,577.595,1483.82,1482.27,2.79001,1.93438
618.0,2.79074,577.76,1488.76,1487.21,2.79106,1.93543
621.0,2.79403,577.925,1493.7,1492.14,2.79453,1.9389
624.0,2.80253,578.089,1498.63,1497.08,2.79981,1.94418
627.0,2.79459,578.254,1503.56,1502.01,2.79559,1.93996
630.0,2.82904,578.419,1508.49,1506.93,2.80797,1.95234
633.0,2.80611,578.584,1513.41,1511.85,2.80611,1.95048
636.0,2.80878,578.749,1518.34,1516.77,2.80878,1.95315
639.0,2.81287,578.914,1523.26,1521.69,2.81388,1.95825
642.0,2.81678,579.078,1528.17,1526.61,2.81504,1.95941
645.0,2.82077,579.243,1533.09,1531.52,2.81822,1.96259
648.0,2.82591,579.408,1538,1536.43,2.82057,1.96494
651.0,2.82934,579.573,1542.91,1541.33,2.82574,1.97011
654.0,2.82697,579.738,1547.82,1546.24,2.82781,1.97218
657.0,2.8303,579.903,1552.72,1551.14,2.8303,1.97467
660.0,2.82905,580.067,1557.62,1556.04,2.82905,1.97342
663.0,2.82969,580.232,1562.52,1560.93,2.83326,1.97763
666.0,2.8376,580.397,1567.41,1565.83,2.83211,1.97648
669.0,2.83244,580.562,1572.3,1570.72,2.83244,1.97681
672.0,2.90725,580.727,1577.19,1575.6,2.83377,1.97814
675.0,2.83485,580.892,1582.08,1580.49,2.83377,1.97814
678.0,2.83596,581.057,1586.96,1585.37,2.83596,1.98033
681.0,2.83798,581.221,1591.84,1590.25,2.83798,1.98235
684.0,2.83823,581.386,1596.72,1595.12,2.83859,1.98296
687.0,2.84214,581.551,1601.6,1600,2.83951,1.98388
690.0,2.83678,581.716,1606.47,1604.87,2.8415,1.98587
693.0,2.84358,581.881,1611.34,1609.73,2.84358,1.98795
696.0,2.84695,582.046,1616.21,1614.6,2.8452,1.98957
699.0,2.8465,582.21,1621.07,1619.46,2.8469,1.99127
702.0,2.85276,582.375,1625.93,1624.32,2.8509,1.99527
705.0,2.85083,582.54,1630.79,1629.18,2.84748,1.99185
708.0,2.85229,582.705,1635.65,1634.03,2.84748,1.99185
711.0,2.85473,582.87,1640.5,1638.88,2.85363,1.998
714.0,2.84958,583.035,1645.35,1643.73,2.85477,1.99914
717.0,2.84925,583.199,1650.2,1648.57,2.85402,1.99839
720.0,2.85573,583.364,1655.04,1653.42,2.85402,1.99839
723.0,2.85502,583.529,1659.89,1658.26,2.85501,1.99938
726.0,2.85724,583.694,1664.73,1663.1,2.85724,2.00161
729.0,2.8596,583.859,1669.56,1667.93,2.85926,2.00363
732.0,2.8616,584.024,1674.4,1672.76,2.85995,2.00432
735.0,2.866,584.188,1679.23,1677.59,2.866,2.01037
738.0,2.8584,584.353,1684.06,1682.42,2.8662,2.01057
741.0,2.86916,584.518,1688.88,1687.24,2.86708,2.01145
744.0,2.86521,584.683,1693.71,1692.06,2.86979,2.01416
747.0,2.86932,584.848,1698.53,1696.88,2.8732,2.01757
750.0,2.87281,585.013,1703.35,1701.7,2.8731,2.01747
753.0,2.87754,585.178,1708.16,1706.51,2.87645,2.02082
756.0,2.87917,585.342,1712.97,1711.32,2.8772,2.02157
759.0,2.87816,585.507,1717.78,1716.13,2.8772,2.02157
762.0,2.88104,585.672,1722.59,1720.93,2.88132,2.02569
765.0,2.8813,585.837,1727.39,1725.73,2.88228,2.02665
768.0,2.88408,586.002,1732.2,1730.53,2.88408,2.02845
771.0,2.88989,586.167,1737,1735.33,2.88731,2.03168
774.0,2.89106,586.331,1741.79,1740.12,2.88552,2.02989
777.0,2.89112,586.496,1746.58,1744.91,2.88973,2.0341
780.0,2.88634,586.661,1751.38,1749.7,2.8886,2.03297
783.0,2.94667,586.826,1756.16,1754.49,2.89053,2.0349
786.0,2.89869,586.991,1760.95,1759.27,2.88899,2.03336
789.0,2.89366,587.156,1765.73,1764.05,2.89366,2.03803
792.0,2.89428,587.32,1770.51,1768.83,2.89428,2.03865
795.0,2.89693,587.485,1775.29,1773.61,2.89235,2.03672
798.0,2.90137,587.65,1780.06,1778.38,2.89808,2.04245
801.0,2.90028,587.815,1784.84,1783.15,2.89788,2.04225
804.0,2.89632,587.98,1789.61,1787.91,2.89632,2.04069
807.0,2.89468,588.145,1794.37,1792.68,2.89468,2.03905
810.0,2.89771,588.309,1799.14,1797.44,2.89771,2.04208
813.0,2.89717,588.474,1803.9,1802.2,2.89717,2.04154
816.0,2.89763,588.639,1808.66,1806.96,2.89738,2.04175
819.0,2.90019,588.804,1813.41,1811.71,2.90019,2.04456
822.0,2.90135,588.969,1818.17,1816.46,2.90135,2.04572
825.0,2.90306,589.134,1822.92,1821.21,2.90306,2.04743
828.0,2.90986,589.299,1827.66,1825.96,2.90488,2.04925
831.0,2.90916,589.463,1832.41,1830.7,2.90756,2.05193
834.0,2.90914,589.628,1837.15,1835.44,2.90977,2.05414
837.0,2.90944,589.793,1841.89,1840.18,2.90977,2.05414
840.0,2.91011,589.958,1846.63,1844.91,2.91096,2.05533
843.0,2.91259,590.123,1851.36,1849.65,2.91608,2.06045
846.0,2.92329,590.288,1856.1,1854.37,2.92169,2.06606
849.0,2.90815,590.452,1860.83,1859.1,2.92135,2.06572
852.0,2.92195,590.617,1865.55,1863.83,2.92015,2.06452
855.0,2.92244,590.782,1870.28,1868.55,2.92015,2.06452
858.0,2.92334,590.947,1875,1873.27,2.92202,2.06639
861.0,2.92226,591.112,1879.72,1877.98,2.92226,2.06663
864.0,2.92199,591.277,1884.43,1882.7,2.92788,2.07225
867.0,2.93641,591.441,1889.15,1887.41,2.92788,2.07225
870.0,2.92612,591.606,1893.86,1892.12,2.92533,2.0697
873.0,2.92677,591.771,1898.57,1896.83,2.92677,2.07114
876.0,2.92348,591.936,1903.27,1901.53,2.92132,2.06569
879.0,2.92615,592.101,1907.98,1906.23,2.92267,2.06704
882.0,2.9277,592.266,1912.68,1910.93,2.9277,2.07207
885.0,2.91936,592.43,1917.38,1915.62,2.92541,2.06978
888.0,2.92082,592.595,1922.07,1920.32,2.92577,2.07014
891.0,2.92281,592.76,1926.76,1925.01,2.92391,2.06828
894.0,2.91933,592.925,1931.45,1929.7,2.92143,2.0658
897.0,2.92002,593.09,1936.14,1934.38,2.92143,2.0658
900.0,2.92266,593.255,1940.83,1939.06,2.92154,2.06591
903.0,2.91886,593.42,1945.51,1943.74,2.92154,2.06591
906.0,2.92262,593.584,1950.19,1948.42,2.92318,2.06755
909.0,2.92039,593.749,1954.86,1953.1,2.92039,2.06476
912.0,2.92212,593.914,1959.54,1957.77,2.92025,2.06462
915.0,2.91948,594.079,1964.21,1962.44,2.91474,2.05911
918.0,2.91444,594.244,1968.88,1967.11,2.91321,2.05758
921.0,2.91755,594.409,1973.55,1971.77,2.91652,2.06089
924.0,2.91406,594.573,1978.21,1976.43,2.91406,2.05843
927.0,2.91569,594.738,1982.87,1981.09,2.91335,2.05772
930.0,2.90952,594.903,1987.53,1985.75,2.91479,2.05916
933.0,2.91481,595.068,1992.19,1990.4,2.91523,2.0596
936.0,2.90958,595.233,1996.84,1995.05,2.91278,2.05715
939.0,2.90857,595.398,2001.49,1999.7,2.90869,2.05306
942.0,2.9037,595.562,2006.14,2004.35,2.90869,2.05306
945.0,2.90492,595.727,2010.79,2008.99,2.90492,2.04929
948.0,2.90272,595.892,2015.43,2013.63,2.90368,2.04805
951.0,2.90537,596.057,2020.07,2018.27,2.90537,2.04974
954.0,2.90121,596.222,2024.71,2022.91,2.90143,2.0458
957.0,2.89723,596.387,2029.35,2027.54,2.89723,2.0416
960.0,2.89444,596.551,2033.98,2032.17,2.89603,2.0404
963.0,2.89468,596.716,2038.61,2036.8,2.89603,2.0404
966.0,2.88896,596.881,2043.24,2041.43,2.89441,2.03878
969.0,2.89632,597.046,2047.86,2046.05,2.89441,2.03878
972.0,2.89285,597.211,2052.49,2050.67,2.89285,2.03722
975.0,2.89478,597.376,2057.11,2055.29,2.89004,2.03441
978.0,2.88411,597.541,2061.73,2059.91,2.88411,2.02848
981.0,2.88156,597.705,2066.34,2064.52,2.88274,2.02711
984.0,2.87948,597.87,2070.95,2069.13,2.88357,2.02794
987.0,2.88263,598.035,2075.56,2073.74,2.88263,2.027
990.0,2.8775,598.2,2080.17,2078.34,2.87586,2.02023
993.0,2.86963,598.365,2084.78,2082.95,2.86995,2.01432
996.0,2.87837,598.53,2089.38,2087.55,2.87041,2.01478
999.0,2.87177,598.694,2093.98,2092.15,2.87056,2.01493
1002.0,2.86257,598.859,2098.58,2096.74,2.86695,2.01132
1005.0,2.86517,599.024,2103.17,2101.33,2.86517,2.00954
1008.0,2.8708,599.189,2107.77,2105.93,2.86256,2.00693
1011.0,2.85714,599.354,2112.36,2110.51,2.86183,2.0062
1014.0,2.85709,599.519,2116.94,2115.1,2.85709,2.00146
1017.0,2.85422,599.683,2121.53,2119.68,2.85619,2.00056
1020.0,2.85693,599.848,2126.11,2124.26,2.8569,2.00127
1023.0,2.85592,600.013,2130.69,2128.84,2.85588,2.00025
1026.0,2.85078,600.178,2135.27,2133.41,2.85516,1.99953
1029.0,2.8543,600.343,2139.84,2137.99,2.8543,1.99867
1032.0,2.84895,600.508,2144.42,2142.56,2.84895,1.99332
1035.0,2.84558,600.672,2148.99,2147.13,2.84562,1.98999
1038.0,2.84772,600.837,2153.55,2151.69,2.84562,1.98999
1041.0,2.84639,601.002,2158.12,2156.25,2.84627,1.99064
1044.0,2.85155,601.167,2162.68,2160.81,2.8399,1.98427
1047.0,2.83711,601.332,2167.24,2165.37,2.83902,1.98339
1050.0,2.83486,601.497,2171.8,2169.93,2.83902,1.98339
1053.0,2.83038,601.662,2176.35,2174.48,2.83717,1.98154
1056.0,2.8315,601.826,2180.9,2179.03,2.8315,1.97587
1059.0,2.83043,601.991,2185.45,2183.58,2.82853,1.9729
1062.0,2.82944,602.156,2190,2188.12,2.82944,1.97381
1065.0,2.82817,602.321,2194.55,2192.67,2.82639,1.97076
1068.0,2.82596,602.486,2199.09,2197.21,2.82558,1.96995
1071.0,2.824,602.651,2203.63,2201.74,2.82558,1.96995
1074.0,2.82468,602.815,2208.17,2206.28,2.82468,1.96905
1077.0,2.81769,602.98,2212.7,2210.81,2.8197,1.96407
1080.0,2.81698,603.145,2217.23,2215.34,2.81742,1.96179
1083.0,2.82699,603.31,2221.76,2219.87,2.82699,1.97136
1086.0,2.81771,603.475,2226.29,2224.4,2.8235,1.96787
1089.0,2.81952,603.64,2230.82,2228.92,2.81952,1.96389
1092.0,2.81946,603.804,2235.34,2233.44,2.81901,1.96338
1095.0,2.82253,603.969,2239.86,2237.96,2.818,1.96237
1098.0,2.81591,604.134,2244.38,2242.47,2.81374,1.95811
1101.0,2.81925,604.299,2248.89,2246.99,2.81504,1.95941
1104.0,2.81444,604.464,2253.41,2251.5,2.81504,1.95941
1107.0,2.81244,604.629,2257.92,2256,2.81244,1.95681
1110.0,2.80152,604.794,2262.42,2260.51,2.8103,1.95467
1113.0,2.80855,604.958,2266.93,2265.01,2.80855,1.95292
1116.0,2.8035,605.123,2271.43,2269.51,2.80704,1.95141
1119.0,2.81317,605.288,2275.93,2274.01,2.80798,1.95235
1122.0,2.80387,605.453,2280.43,2278.51,2.80143,1.9458
1125.0,2.79733,605.618,2284.93,2283,2.7976,1.94197
1128.0,2.80168,605.783,2289.42,2287.49,2.79782,1.94219
1131.0,2.79533,605.947,2293.91,2291.98,2.79524,1.93961
1134.0,2.79646,606.112,2298.4,2296.47,2.79524,1.93961
1137.0,2.79495,606.277,2302.88,2300.95,2.79495,1.93932
1140.0,2.79096,606.442,2307.37,2305.43,2.79397,1.93834
1143.0,2.79315,606.607,2311.85,2309.91,2.79214,1.93651
1146.0,2.79237,606.772,2316.33,2314.39,2.79163,1.936
1149.0,2.78989,606.936,2320.8,2318.86,2.78779,1.93216
1152.0,2.78551,607.101,2325.28,2323.33,2.78501,1.92938
1155.0,2.78873,607.266,2329.75,2327.8,2.7846,1.92897
1158.0,2.78685,607.431,2334.22,2332.27,2.78522,1.92959
1161.0,2.78089,607.596,2338.68,2336.73,2.78487,1.92924
1164.0,2.7787,607.761,2343.15,2341.19,2.7787,1.92307
1167.0,2.78519,607.925,2347.61,2345.65,2.77903,1.9234
1170.0,2.77719,608.09,2352.07,2350.11,2.77876,1.92313
1173.0,2.77884,608.255,2356.52,2354.57,2.77596,1.92033
1176.0,2.77422,608.42,2360.98,2359.02,2.77422,1.91859
1179.0,2.77053,608.585,2365.43,2363.47,2.77259,1.91696
1182.0,2.76689,608.75,2369.88,2367.91,2.77049,1.91486
1185.0,2.7646,608.915,2374.33,2372.36,2.76918,1.91355
1188.0,2.76735,609.079,2378.77,2376.8,2.76735,1.91172
1191.0,2.7688,609.244,2383.21,2381.24,2.7636,1.90797
1194.0,2.76559,609.409,2387.65,2385.68,2.76537,1.90974
1197.0,2.75897,609.574,2392.09,2390.12,2.76153,1.9059
1200.0,2.76322,609.739,2396.52,2394.55,2.76153,1.9059
1203.0,2.75529,609.904,2400.96,2398.98,2.75473,1.8991
1206.0,2.75232,610.068,2405.39,2403.41,2.75232,1.89669
1209.0,2.74929,610.233,2409.82,2407.83,2.75158,1.89595
1212.0,2.7522,610.398,2414.24,2412.26,2.75051,1.89488
1215.0,2.74808,610.563,2418.66,2416.68,2.74808,1.89245
1218.0,2.7391,610.728,2423.08,2421.1,2.74404,1.88841
1221.0,2.74716,610.893,2427.5,2425.51,2.74428,1.88865
1224.0,2.73865,611.057,2431.92,2429.93,2.73747,1.88184
1227.0,2.73846,611.222,2436.33,2434.34,2.73569,1.88006
1230.0,2.73453,611.387,2440.74,2438.75,2.73402,1.87839
1233.0,2.73746,611.552,2445.15,2443.15,2.73402,1.87839
1236.0,2.72306,611.717,2449.56,2447.56,2.72979,1.87416
1239.0,2.72508,611.882,2453.96,2451.96,2.72735,1.87172
1242.0,2.72584,612.046,2458.36,2456.36,2.72584,1.87021
1245.0,2.72437,612.211,2462.76,2460.75,2.72303,1.8674
1248.0,2.72215,612.376,2467.16,2465.15,2.72317,1.86754
1251.0,2.71897,612.541,2471.55,2469.54,2.7223,1.86667
1254.0,2.72085,612.706,2475.95,2473.93,2.71826,1.86263
1257.0,2.71247,612.871,2480.34,2478.32,2.71674,1.86111
1260.0,2.71382,613.036,2484.72,2482.71,2.71253,1.8569
1263.0,2.70464,613.2,2489.11,2487.09,2.7096,1.85397
1266.0,2.7024,613.365,2493.49,2491.47,2.70612,1.85049
1269.0,2.69947,613.53,2497.87,2495.85,2.70186,1.84623
1272.0,2.69766,613.695,2502.25,2500.22,2.69766,1.84203
1275.0,2.69686,613.86,2506.63,2504.6,2.69378,1.83815
1278.0,2.68414,614.025,2511,2508.97,2.68965,1.83402
1281.0,2.68843,614.189,2515.37,2513.34,2.68843,1.8328
1284.0,2.69163,614.354,2519.74,2517.7,2.68206,1.82643
1287.0,2.69684,614.519,2524.1,2522.07,2.67965,1.82402
1290.0,2.67547,614.684,2528.47,2526.43,2.67547,1.81984
1293.0,2.67763,614.849,2532.83,2530.79,2.67418,1.81855
1296.0,2.6714,615.014,2537.19,2535.15,2.66956,1.81393
1299.0,2.66392,615.178,2541.55,2539.5,2.66248,1.80685
1302.0,2.66253,615.343,2545.9,2543.85,2.66021,1.80458
1305.0,2.65753,615.508,2550.25,2548.2,2.65824,1.80261
1308.0,2.65402,615.673,2554.6,2552.55,2.65402,1.79839
1311.0,2.65395,615.838,2558.95,2556.9,2.65297,1.79734
1314.0,2.64591,616.003,2563.3,2561.24,2.64591,1.79028
1317.0,2.64207,616.167,2567.64,2565.58,2.64207,1.78644
1320.0,2.64321,616.332,2571.98,2569.92,2.64154,1.78591
1323.0,2.64573,616.497,2576.32,2574.26,2.63657,1.78094
1326.0,2.62824,616.662,2580.65,2578.59,2.63226,1.77663
1329.0,2.62973,616.827,2584.99,2582.92,2.62973,1.7741
1332.0,2.62334,616.992,2589.32,2587.25,2.62334,1.76771
1335.0,2.62127,617.157,2593.65,2591.58,2.6196,1.76397
1338.0,2.6181,617.321,2597.97,2595.9,2.61807,1.76244
1341.0,2.60893,617.486,2602.3,2600.22,2.6116,1.75597
1344.0,2.61366,617.651,2606.62,2604.54,2.6116,1.75597
1347.0,2.60743,617.816,2610.94,2608.86,2.60743,1.7518
1350.0,2.61089,617.981,2615.26,2613.18,2.60598,1.75035
1353.0,2.60069,618.146,2619.57,2617.49,2.60224,1.74661
1356.0,2.59791,618.31,2623.89,2621.8,2.59525,1.73962
1359.0,2.59379,618.475,2628.2,2626.11,2.59191,1.73628
1362.0,2.59286,618.64,2632.5,2630.42,2.58666,1.73103
1365.0,2.58417,618.805,2636.81,2634.72,2.58504,1.72941
1368.0,2.58157,618.97,2641.11,2639.02,2.58504,1.72941
1371.0,2.58083,619.135,2645.42,2643.32,2.58043,1.7248
1374.0,2.57199,619.299,2649.71,2647.62,2.5777,1.72207
1377.0,2.57701,619.464,2654.01,2651.91,2.5777,1.72207
1380.0,2.5727,619.629,2658.31,2656.21,2.5727,1.71707
1383.0,2.56933,619.794,2662.6,2660.5,2.56883,1.7132
1386.0,2.56878,619.959,2666.89,2664.78,2.56878,1.71315
1389.0,2.5601,620.124,2671.18,2669.07,2.56594,1.71031
1392.0,2.57212,620.288,2675.46,2673.35,2.56042,1.70479
1395.0,2.56047,620.453,2679.74,2677.63,2.55758,1.70195
1398.0,2.55475,620.618,2684.03,2681.91,2.55435,1.69872
1401.0,2.54914,620.783,2688.3,2686.19,2.55106,1.69543
1404.0,2.54969,620.948,2692.58,2690.46,2.55102,1.69539
1407.0,2.54474,621.113,2696.85,2694.74,2.55042,1.69479
1410.0,2.54527,621.278,2701.13,2699.01,2.54834,1.69271
1413.0,2.544,621.442,2705.4,2703.27,2.54492,1.68929
1416.0,2.54562,621.607,2709.66,2707.54,2.54492,1.68929
1419.0,2.54335,621.772,2713.93,2711.8,2.53788,1.68225
1422.0,2.54105,621.937,2718.19,2716.06,2.53427,1.67864
1425.0,2.52818,622.102,2722.45,2720.32,2.53187,1.67624
1428.0,2.53695,622.267,2726.71,2724.58,2.53409,1.67846
1431.0,2.52497,622.431,2730.96,2728.83,2.52675,1.67112
1434.0,2.52992,622.596,2735.22,2733.08,2.5253,1.66967
1437.0,2.53023,622.761,2739.47,2737.33,2.52484,1.66921
1440.0,2.52452,622.926,2743.72,2741.58,2.5242,1.66857
1443.0,2.52036,623.091,2747.97,2745.82,2.52219,1.66656
1446.0,2.52157,623.256,2752.21,2750.07,2.52157,1.66594
1449.0,2.51621,623.42,2756.45,2754.31,2.51621,1.66058
1452.0,2.51351,623.585,2760.69,2758.55,2.51054,1.65491
1455.0,2.5106,623.75,2764.93,2762.78,2.50929,1.65366
1458.0,2.50174,623.915,2769.17,2767.01,2.50503,1.6494
1461.0,2.51936,624.08,2773.4,2771.25,2.50503,1.6494
1464.0,2.50138,624.245,2777.63,2775.48,2.50286,1.64723
1467.0,2.49906,624.409,2781.86,2779.7,2.49906,1.64343
1470.0,2.49658,624.574,2786.09,2783.93,2.49685,1.64122
1473.0,2.49699,624.739,2790.31,2788.15,2.49699,1.64136
1476.0,2.49555,624.904,2794.53,2792.37,2.49555,1.63992
1479.0,2.49751,625.069,2798.75,2796.59,2.49656,1.64093
1482.0,2.49253,625.234,2802.97,2800.8,2.49159,1.63596
1485.0,2.49128,625.399,2807.19,2805.02,2.49159,1.63596
1488.0,2.48686,625.563,2811.4,2809.23,2.48991,1.63428
1491.0,2.49205,625.728,2815.61,2813.44,2.48991,1.63428
1494.0,2.48647,625.893,2819.82,2817.65,2.48807,1.63244
1497.0,2.48757,626.058,2824.03,2821.85,2.48826,1.63263
1500.0,2.48767,626.223,2828.23,2826.05,2.49022,1.63459
1503.0,2.48991,626.388,2832.44,2830.25,2.48954,1.63391
1506.0,2.4883,626.552,2836.64,2834.45,2.48833,1.6327
1509.0,2.48942,626.717,2840.83,2838.65,2.48701,1.63138
1512.0,2.48478,626.882,2845.03,2842.84,2.48382,1.62819
1515.0,2.49633,627.047,2849.22,2847.03,2.48103,1.6254
1518.0,2.47452,627.212,2853.41,2851.22,2.47486,1.61923
1521.0,2.47464,627.377,2857.6,2855.41,2.47464,1.61901
1524.0,2.47649,627.541,2861.79,2859.59,2.47149,1.61586
1527.0,2.46829,627.706,2865.97,2863.78,2.47132,1.61569
1530.0,2.4693,627.871,2870.16,2867.96,2.46728,1.61165
1533.0,2.4686,628.036,2874.34,2872.14,2.46655,1.61092
1536.0,2.46652,628.201,2878.52,2876.31,2.46892,1.61329
1539.0,2.47016,628.366,2882.69,2880.49,2.47167,1.61604
1542.0,2.46929,628.53,2886.87,2884.66,2.47494,1.61931
1545.0,2.47592,628.695,2891.04,2888.83,2.47494,1.61931
1548.0,2.46709,628.86,2895.21,2892.99,2.46709,1.61146
1551.0,2.46686,629.025,2899.37,2897.16,2.46586,1.61023
1554.0,2.4597,629.19,2903.54,2901.32,2.46252,1.60689
1557.0,2.45369,629.355,2907.7,2905.48,2.4545,1.59887
1560.0,2.44723,629.52,2911.86,2909.64,2.44953,1.5939
1563.0,2.44456,629.684,2916.02,2913.8,2.44659,1.59096
1566.0,2.43535,629.849,2920.18,2917.95,2.4399,1.58427
1569.0,2.43069,630.014,2924.33,2922.1,2.43339,1.57776
1572.0,2.43184,630.179,2928.48,2926.25,2.43339,1.57776
1575.0,2.42927,630.344,2932.63,2930.4,2.42951,1.57388
1578.0,2.42457,630.509,2936.78,2934.55,2.42457,1.56894
1581.0,2.41886,630.673,2940.93,2938.69,2.41886,1.56323
1584.0,2.41549,630.838,2945.07,2942.83,2.4154,1.55977
1587.0,2.40472,631.003,2949.21,2946.97,2.40932,1.55369
1590.0,2.40069,631.168,2953.35,2951.11,2.40191,1.54628
1593.0,2.39483,631.333,2957.49,2955.24,2.39483,1.5392
1596.0,2.39963,631.498,2961.62,2959.38,2.39249,1.53686
1599.0,2.3816,631.662,2965.75,2963.51,2.38384,1.52821
1602.0,2.3755,631.827,2969.88,2967.64,2.37646,1.52083
1605.0,2.37089,631.992,2974.01,2971.76,2.37239,1.51676
1608.0,2.36478,632.157,2978.14,2975.89,2.36478,1.50915
1611.0,2.36239,632.322,2982.26,2980.01,2.36239,1.50676
1614.0,2.35609,632.487,2986.38,2984.13,2.35749,1.50186
1617.0,2.35346,632.651,2990.5,2988.24,2.35346,1.49783
1620.0,2.34341,632.816,2994.62,2992.36,2.34751,1.49188
1623.0,2.34481,632.981,2998.73,2996.47,2.34187,1.48624
1626.0,2.3362,633.146,3002.85,3000.58,2.33483,1.4792
1629.0,2.32614,633.311,3006.96,3004.69,2.33116,1.47553
1632.0,2.32315,633.476,3011.07,3008.8,2.32315,1.46752
1635.0,2.31513,633.641,3015.17,3012.91,2.31693,1.4613
1638.0,2.31067,633.805,3019.28,3017.01,2.31067,1.45504
1641.0,2.31078,633.97,3023.38,3021.11,2.3057,1.45007
1644.0,2.29988,634.135,3027.48,3025.21,2.29988,1.44425
1647.0,2.29398,634.3,3031.58,3029.3,2.29697,1.44134
1650.0,2.29227,634.465,3035.68,3033.4,2.28899,1.43336
1653.0,2.28517,634.63,3039.77,3037.49,2.28517,1.42954
1656.0,2.27918,634.794,3043.86,3041.58,2.27918,1.42355
1659.0,2.27193,634.959,3047.95,3045.67,2.27434,1.41871
1662.0,2.27032,635.124,3052.04,3049.75,2.27032,1.41469
1665.0,2.26773,635.289,3056.12,3053.84,2.2648,1.40917
1668.0,2.26094,635.454,3060.21,3057.92,2.26094,1.40531
1671.0,2.25402,635.619,3064.29,3062,2.25665,1.40102
1674.0,2.25771,635.783,3068.37,3066.07,2.25452,1.39889
1677.0,2.24326,635.948,3072.44,3070.15,2.24326,1.38763
1680.0,2.24187,636.113,3076.52,3074.22,2.24079,1.38516
1683.0,2.23771,636.278,3080.59,3078.29,2.23474,1.37911
1686.0,2.22788,636.443,3084.66,3082.36,2.23261,1.37698
1689.0,2.2258,636.608,3088.73,3086.43,2.22709,1.37146
1692.0,2.22186,636.772,3092.8,3090.49,2.22186,1.36623
1695.0,2.21908,636.937,3096.86,3094.55,2.21895,1.36332
1698.0,2.21802,637.102,3100.92,3098.61,2.21728,1.36165
1701.0,2.20905,637.267,3104.98,3102.67,2.21205,1.35642
1704.0,2.20193,637.432,3109.04,3106.73,2.20356,1.34793
1707.0,2.20114,637.597,3113.1,3110.78,2.20119,1.34556
1710.0,2.19893,637.762,3117.15,3114.83,2.19844,1.34281
1713.0,2.18832,637.926,3121.2,3118.88,2.19341,1.33778
1716.0,2.19042,638.091,3125.25,3122.93,2.18966,1.33403
1719.0,2.18911,638.256,3129.3,3126.98,2.18736,1.33173
1722.0,2.18716,638.421,3133.34,3131.02,2.18512,1.32949
1725.0,2.17848,638.586,3137.39,3135.06,2.17848,1.32285
1728.0,2.17798,638.751,3141.43,3139.1,2.17325,1.31762
1731.0,2.16652,638.915,3145.47,3143.14,2.17226,1.31663
1734.0,2.16386,639.08,3149.51,3147.17,2.16635,1.31072
1737.0,2.16611,639.245,3153.54,3151.21,2.16611,1.31048
1740.0,2.16145,639.41,3157.57,3155.24,2.16145,1.30582
1743.0,2.15438,639.575,3161.6,3159.27,2.15558,1.29995
1746.0,2.14711,639.74,3165.63,3163.29,2.14973,1.2941
1749.0,2.14853,639.904,3169.66,3167.32,2.14865,1.29302
1752.0,2.14146,640.069,3173.68,3171.34,2.14146,1.28583
1755.0,2.13707,640.234,3177.71,3175.36,2.13634,1.28071
1758.0,2.13181,640.399,3181.73,3179.38,2.13426,1.27863
1761.0,2.13313,640.564,3185.75,3183.4,2.1315,1.27587
1764.0,2.12444,640.729,3189.76,3187.41,2.12518,1.26955
1767.0,2.12411,640.893,3193.78,3191.42,2.12518,1.26955
1770.0,2.11915,641.058,3197.79,3195.43,2.11915,1.26352
1773.0,2.11487,641.223,3201.8,3199.44,2.11227,1.25664
1776.0,2.10865,641.388,3205.81,3203.45,2.10865,1.25302
1779.0,2.10638,641.553,3209.81,3207.45,2.10638,1.25075
1782.0,2.10309,641.718,3213.82,3211.45,2.10179,1.24616
1785.0,2.0965,641.883,3217.82,3215.45,2.0965,1.24087
1788.0,2.09565,642.047,3221.82,3219.45,2.09356,1.23793
1791.0,2.08542,642.212,3225.82,3223.45,2.08642,1.23079
1794.0,2.08774,642.377,3229.81,3227.44,2.08642,1.23079
1797.0,2.08021,642.542,3233.81,3231.43,2.08021,1.22458
1800.0,2.07773,642.707,3237.8,3235.42,2.07779,1.22216
1803.0,2.0737,642.872,3241.79,3239.41,2.0737,1.21807
1806.0,2.07504,643.036,3245.77,3243.4,2.07062,1.21499
1809.0,2.07797,643.201,3249.76,3247.38,2.06602,1.21039
1812.0,2.05989,643.366,3253.74,3251.36,2.06235,1.20672
1815.0,2.05762,643.531,3257.72,3255.34,2.06053,1.2049
1818.0,2.05082,643.696,3261.7,3259.32,2.0537,1.19807
1821.0,2.04899,643.861,3265.68,3263.29,2.05042,1.19479
1824.0,2.04331,644.025,3269.66,3267.27,2.04579,1.19016
1827.0,2.04262,644.19,3273.63,3271.24,2.04407,1.18844
1830.0,2.04197,644.355,3277.6,3275.21,2.04086,1.18523
1833.0,2.03758,644.52,3281.57,3279.18,2.03433,1.1787
1836.0,2.03224,644.685,3285.54,3283.14,2.03203,1.1764
1839.0,2.0301,644.85,3289.5,3287.1,2.02733,1.1717
1842.0,2.02084,645.015,3293.47,3291.07,2.02126,1.16563
1845.0,2.0186,645.179,3297.43,3295.02,2.02126,1.16563
1848.0,2.01849,645.344,3301.39,3298.98,2.01849,1.16286
1851.0,2.00822,645.509,3305.34,3302.94,2.01174,1.15611
1854.0,2.01109,645.674,3309.3,3306.89,2.01008,1.15445
1857.0,1.9994,645.839,3313.25,3310.84,2.00425,1.14862
1860.0,2.00207,646.004,3317.2,3314.79,2.00181,1.14618
1863.0,1.99808,646.168,3321.15,3318.74,1.99704,1.14141
1866.0,1.99186,646.333,3325.1,3322.68,1.99186,1.13623
1869.0,1.98947,646.498,3329.04,3326.63,1.98947,1.13384
1872.0,1.98797,646.663,3332.98,3330.57,1.98797,1.13234
1875.0,1.98074,646.828,3336.93,3334.51,1.98074,1.12511
1878.0,1.98159,646.993,3340.86,3338.44,1.98069,1.12506
1881.0,1.97272,647.157,3344.8,3342.38,1.97462,1.11899
1884.0,1.96466,647.322,3348.74,3346.31,1.97085,1.11522
1887.0,1.96882,647.487,3352.67,3350.24,1.96882,1.11319
1890.0,1.96195,647.652,3356.6,3354.17,1.96195,1.10632
1893.0,1.95915,647.817,3360.53,3358.1,1.9571,1.10147
1896.0,1.96067,647.982,3364.46,3362.02,1.95624,1.10061
1899.0,1.95096,648.146,3368.38,3365.95,1.95096,1.09533
1902.0,1.94505,648.311,3372.3,3369.87,1.94622,1.09059
1905.0,1.94437,648.476,3376.22,3373.79,1.94437,1.08874
1908.0,1.93778,648.641,3380.14,3377.7,1.93778,1.08215
1911.0,1.93388,648.806,3384.06,3381.62,1.93423,1.0786
1914.0,1.92648,648.971,3387.98,3385.53,1.93139,1.07576
1917.0,1.92807,649.136,3391.89,3389.44,1.92807,1.07244
1920.0,1.92379,649.3,3395.8,3393.35,1.92427,1.06864
1923.0,1.91718,649.465,3399.71,3397.26,1.91718,1.06155
1926.0,1.91176,649.63,3403.62,3401.16,1.91176,1.05613
1929.0,1.90689,649.795,3407.52,3405.07,1.90844,1.05281
1932.0,1.90997,649.96,3411.42,3408.97,1.90399,1.04836
1935.0,1.89836,650.125,3415.32,3412.87,1.89836,1.04273
1938.0,1.89645,650.289,3419.22,3416.76,1.89645,1.04082
1941.0,1.88785,650.454,3423.12,3420.66,1.88823,1.0326
1944.0,1.88943,650.619,3427.02,3424.55,1.88823,1.0326
1947.0,1.87964,650.784,3430.91,3428.44,1.88188,1.02625
1950.0,1.87736,650.949,3434.8,3432.33,1.87736,1.02173
1953.0,1.87425,651.114,3438.69,3436.22,1.87315,1.01752
1956.0,1.86889,651.278,3442.58,3440.11,1.86889,1.01326
1959.0,1.86091,651.443,3446.46,3443.99,1.86492,1.00929
1962.0,1.86086,651.608,3450.34,3447.87,1.85859,1.00296
1965.0,1.85511,651.773,3454.23,3451.75,1.85324,0.997612
1968.0,1.85661,651.938,3458.11,3455.63,1.85235,0.996722
1971.0,1.84654,652.103,3461.98,3459.5,1.84758,0.991952
1974.0,1.84447,652.267,3465.86,3463.38,1.8426,0.986972
1977.0,1.84007,652.432,3469.73,3467.25,1.83818,0.982552
1980.0,1.83831,652.597,3473.6,3471.12,1.83491,0.979282
1983.0,1.83165,652.762,3477.47,3474.99,1.82967,0.974042
1986.0,1.82453,652.927,3481.34,3478.85,1.82453,0.968902
1989.0,1.81749,653.092,3485.21,3482.72,1.82197,0.966342
1992.0,1.81671,653.257,3489.07,3486.58,1.82091,0.965282
1995.0,1.81541,653.421,3492.93,3490.44,1.81541,0.959782
1998.0,1.81001,653.586,3496.79,3494.3,1.81016,0.954532
2001.0,1.80543,653.751,3500.65,3498.15,1.80543,0.949802
2004.0,1.79912,653.916,3504.51,3502.01,1.80005,0.944422
2007.0,1.79013,654.081,3508.36,3505.86,1.79696,0.941332
2010.0,1.79055,654.246,3512.21,3509.71,1.7918,0.936172
2013.0,1.79252,654.41,3516.06,3513.56,1.78995,0.934322
2016.0,1.78374,654.575,3519.91,3517.4,1.78319,0.927562
2019.0,1.78062,654.74,3523.76,3521.25,1.78062,0.924992
2022.0,1.77292,654.905,3527.6,3525.09,1.77429,0.918662
2025.0,1.77304,655.07,3531.44,3528.93,1.77304,0.917412
2028.0,1.76652,655.235,3535.28,3532.77,1.76596,0.910332
2031.0,1.76253,655.399,3539.12,3536.61,1.76253,0.906902
2034.0,1.75852,655.564,3542.96,3540.44,1.75852,0.902892
2037.0,1.75268,655.729,3546.79,3544.27,1.75268,0.897052
2040.0,1.7532,655.894,3550.63,3548.1,1.75127,0.895642
2043.0,1.74961,656.059,3554.46,3551.93,1.74668,0.891052
2046.0,1.74401,656.224,3558.28,3555.76,1.74374,0.888112
2047.0,1.74474,656.279,3559.56,3557.04,1.74331,0.887682