File: data/processed/processed_data/2024-10-11/2024-10-11_magnesiumsulfateheptahydratepowder_n_n_n_solid_10000_0_5.csv
Pixels #,Intensity (a.u.),Wavelength (nm),Raman shift (cm-1),Raman shift (cm-1) adjusted,Filtered Intensity (a.u.),Baselined Filtered Intensity (a.u.)
0.0,0.803243,543.803,407.968,406.929,0.802506,0.0109228
3.0,0.801516,543.967,413.541,412.499,0.802506,0.0109228
6.0,0.802209,544.132,419.11,418.065,0.802523,0.0109398
9.0,0.80462,544.297,424.676,423.628,0.803534,0.0119508
12.0,0.807749,544.462,430.238,429.188,0.802018,0.0104348
15.0,0.805665,544.627,435.797,434.744,0.802029,0.0104458
18.0,0.805209,544.792,441.353,440.297,0.802029,0.0104458
21.0,0.803831,544.957,446.905,445.847,0.801563,0.00997982
24.0,0.801588,545.121,452.454,451.393,0.801588,0.0100048
27.0,0.802243,545.286,457.999,456.936,0.801863,0.0102798
30.0,0.802171,545.451,463.542,462.476,0.803152,0.0115688
33.0,0.803481,545.616,469.08,468.012,0.805259,0.0136758
36.0,0.801845,545.781,474.616,473.545,0.80249,0.0109068
39.0,0.832645,545.946,480.148,479.075,0.804441,0.0128578
42.0,0.800211,546.11,485.677,484.601,0.803441,0.0118578
45.0,0.803103,546.275,491.202,490.124,0.803103,0.0115198
48.0,0.805792,546.44,496.725,495.643,0.80342,0.0118368
51.0,0.802862,546.605,502.243,501.16,0.80342,0.0118368
54.0,0.814747,546.77,507.759,506.672,0.805195,0.0136118
57.0,0.802495,546.935,513.271,512.182,0.802338,0.0107548
60.0,0.804939,547.099,518.78,517.688,0.802246,0.0106628
63.0,0.800723,547.264,524.285,523.191,0.802307,0.0107238
66.0,0.802091,547.429,529.788,528.691,0.803652,0.0120688
69.0,0.802217,547.594,535.287,534.187,0.803652,0.0120688
72.0,0.801946,547.759,540.782,539.68,0.802066,0.0104828
75.0,0.800998,547.924,546.275,545.17,0.801408,0.00982482
78.0,0.803422,548.088,551.763,550.656,0.802424,0.0108408
81.0,0.804179,548.253,557.249,556.139,0.802996,0.0114128
84.0,0.802075,548.418,562.732,561.619,0.802075,0.0104918
87.0,0.802101,548.583,568.211,567.096,0.803059,0.0114758
90.0,0.80409,548.748,573.686,572.569,0.803062,0.0114788
93.0,0.800998,548.913,579.159,578.039,0.802163,0.0105798
96.0,0.801967,549.078,584.628,583.506,0.802163,0.0105798
99.0,0.80231,549.242,590.094,588.969,0.802474,0.0108908
102.0,0.804666,549.407,595.557,594.429,0.803679,0.0120958
105.0,0.803922,549.572,601.016,599.886,0.803922,0.0123388
108.0,0.803444,549.737,606.472,605.339,0.803444,0.0118608
111.0,0.80224,549.902,611.925,610.79,0.80224,0.0106568
114.0,0.801759,550.067,617.375,616.237,0.802486,0.0109028
117.0,0.801361,550.231,622.821,621.68,0.802259,0.0106758
120.0,0.801377,550.396,628.264,627.121,0.801718,0.0101348
123.0,0.800797,550.561,633.704,632.558,0.80223,0.0106468
126.0,0.801256,550.726,639.14,637.992,0.802467,0.0108838
129.0,0.801697,550.891,644.574,643.423,0.802467,0.0108838
132.0,0.804908,551.056,650.004,648.85,0.802946,0.0113628
135.0,0.800599,551.22,655.431,654.274,0.800807,0.00922382
138.0,0.800267,551.385,660.854,659.695,0.80132,0.00973682
141.0,0.800357,551.55,666.274,665.113,0.803162,0.0115788
144.0,0.803314,551.715,671.691,670.528,0.803163,0.0115798
147.0,0.801068,551.88,677.105,675.939,0.801526,0.00994282
150.0,0.801479,552.045,682.516,681.347,0.801526,0.00994282
153.0,0.800831,552.209,687.923,686.752,0.800831,0.00924782
156.0,0.80158,552.374,693.327,692.153,0.801212,0.00962882
159.0,0.810912,552.539,698.728,697.552,0.801676,0.0100928
162.0,0.801158,552.704,704.126,702.947,0.801676,0.0100928
165.0,0.799351,552.869,709.52,708.339,0.800364,0.00878082
168.0,0.800753,553.034,714.912,713.727,0.800753,0.00916982
171.0,0.798972,553.199,720.3,719.113,0.801408,0.00982482
174.0,0.801278,553.363,725.684,724.495,0.801465,0.00988182
177.0,0.798075,553.528,731.066,729.874,0.79948,0.00789682
180.0,0.801088,553.693,736.444,735.25,0.801088,0.00950483
183.0,0.801533,553.858,741.82,740.623,0.802552,0.0109688
186.0,0.801945,554.023,747.192,745.992,0.802552,0.0109689
189.0,0.800252,554.188,752.561,751.359,0.800252,0.00866888
192.0,0.802207,554.352,757.926,756.722,0.800004,0.00842089
195.0,0.800312,554.517,763.289,762.082,0.800312,0.00872891
198.0,0.800665,554.682,768.648,767.438,0.799866,0.00828292
201.0,0.799502,554.847,774.004,772.792,0.798914,0.00733095
204.0,0.799511,555.012,779.357,778.142,0.799511,0.00792798
207.0,0.798858,555.177,784.706,783.489,0.798858,0.00727501
210.0,0.797891,555.341,790.053,788.833,0.798095,0.00651206
213.0,0.801113,555.506,795.396,794.174,0.801113,0.00953011
216.0,0.801945,555.671,800.737,799.512,0.801466,0.00988316
219.0,0.797848,555.836,806.074,804.846,0.799958,0.00837521
222.0,0.798961,556.001,811.407,810.178,0.799956,0.00837326
225.0,0.801619,556.166,816.738,815.506,0.800153,0.00857031
228.0,0.798898,556.33,822.066,820.831,0.800519,0.00893636
231.0,0.800126,556.495,827.39,826.153,0.80136,0.00977741
234.0,0.801278,556.66,832.711,831.472,0.801278,0.00969546
237.0,0.798248,556.825,838.029,836.787,0.80075,0.00916751
240.0,0.798231,556.99,843.344,842.1,0.80075,0.00916756
243.0,0.799649,557.155,848.656,847.409,0.800234,0.00865161
246.0,0.800898,557.32,853.965,852.715,0.800898,0.00931566
249.0,0.816033,557.484,859.27,858.018,0.801403,0.00982071
252.0,0.799557,557.649,864.572,863.318,0.799622,0.00803975
255.0,0.799143,557.814,869.872,868.615,0.800121,0.0085388
258.0,0.79799,557.979,875.168,873.908,0.800121,0.00853885
261.0,0.801792,558.144,880.461,879.199,0.800669,0.0090869
264.0,0.797279,558.309,885.751,884.486,0.799144,0.00756195
267.0,0.804582,558.473,891.037,889.77,0.800295,0.00871302
270.0,0.801038,558.638,896.321,895.051,0.800251,0.00866909
273.0,0.808598,558.803,901.601,900.329,0.800251,0.00866915
276.0,0.800153,558.968,906.879,905.604,0.798662,0.00708022
279.0,0.79998,559.133,912.153,910.876,0.798662,0.00708029
282.0,0.800518,559.298,917.424,916.145,0.798366,0.00678435
285.0,0.798953,559.462,922.692,921.41,0.798366,0.00678442
288.0,0.797309,559.627,927.957,926.673,0.798106,0.00652449
291.0,0.800551,559.792,933.219,931.932,0.800551,0.00896958
294.0,0.800276,559.957,938.478,937.188,0.800276,0.00869468
297.0,0.800226,560.122,943.733,942.441,0.80122,0.00963878
300.0,0.800948,560.287,948.986,947.691,0.80122,0.00963888
303.0,0.799346,560.452,954.235,952.938,0.800699,0.00911798
306.0,0.800478,560.616,959.482,958.182,0.801401,0.00982009
309.0,0.804384,560.781,964.725,963.423,0.802454,0.0108732
312.0,0.806189,560.946,969.965,968.661,0.813089,0.0215083
315.0,0.828367,561.111,975.202,973.896,0.828367,0.0367864
318.0,0.859554,561.276,980.436,979.127,0.859554,0.0679735
321.0,0.860426,561.441,985.667,984.356,0.860426,0.0688456
324.0,0.847446,561.605,990.895,989.581,0.847446,0.0558657
327.0,0.820428,561.77,996.12,994.803,0.820428,0.0288478
330.0,0.805025,561.935,1001.34,1000.02,0.805025,0.0134449
333.0,0.799423,562.1,1006.56,1005.24,0.800207,0.008627
336.0,0.800159,562.265,1011.78,1010.45,0.799327,0.00774711
339.0,0.800404,562.43,1016.99,1015.66,0.799327,0.00774723
342.0,0.796467,562.594,1022.2,1020.87,0.797928,0.00634835
345.0,0.797526,562.759,1027.4,1026.07,0.798252,0.00667248
348.0,0.796463,562.924,1032.61,1031.27,0.798134,0.00655462
351.0,0.800356,563.089,1037.81,1036.47,0.79857,0.00699076
354.0,0.798443,563.254,1043.01,1041.67,0.79857,0.00699091
357.0,0.799842,563.419,1048.2,1046.86,0.799842,0.00826306
360.0,0.800983,563.583,1053.39,1052.05,0.800921,0.00934221
363.0,0.802848,563.748,1058.58,1057.23,0.801021,0.00944235
366.0,0.801863,563.913,1063.77,1062.42,0.801257,0.0096785
369.0,0.803527,564.078,1068.95,1067.6,0.801257,0.00967865
372.0,0.800212,564.243,1074.13,1072.77,0.80038,0.0088018
375.0,0.798667,564.408,1079.3,1077.95,0.799296,0.00771794
378.0,0.806614,564.573,1084.48,1083.12,0.799102,0.00752409
381.0,0.801003,564.737,1089.65,1088.28,0.799144,0.00756624
384.0,0.798788,564.902,1094.81,1093.45,0.799144,0.00756639
387.0,0.798733,565.067,1099.98,1098.61,0.798777,0.00719954
390.0,0.799433,565.232,1105.14,1103.77,0.79926,0.00768269
393.0,0.796836,565.397,1110.3,1108.93,0.796836,0.00525885
396.0,0.797721,565.562,1115.45,1114.08,0.795356,0.00377904
399.0,0.798294,565.726,1120.6,1119.23,0.79632,0.00474325
402.0,0.796707,565.891,1125.75,1124.37,0.796707,0.00513048
405.0,0.808648,566.056,1130.9,1129.52,0.796761,0.00518475
408.0,0.798157,566.221,1136.04,1134.66,0.796407,0.00483105
411.0,0.79566,566.386,1141.18,1139.8,0.79566,0.00408437
414.0,0.795981,566.551,1146.32,1144.93,0.795981,0.00440573
417.0,0.798723,566.715,1151.45,1150.06,0.795684,0.00410912
420.0,0.795705,566.88,1156.58,1155.19,0.795705,0.00413053
423.0,0.79568,567.045,1161.71,1160.32,0.79568,0.00410597
426.0,0.797447,567.21,1166.84,1165.44,0.795431,0.00385745
429.0,0.794538,567.375,1171.96,1170.56,0.79503,0.00345695
432.0,0.796934,567.54,1177.08,1175.68,0.796934,0.00536149
435.0,0.796109,567.704,1182.19,1180.79,0.796287,0.00471506
438.0,0.793692,567.869,1187.31,1185.9,0.795178,0.00360664
441.0,0.795985,568.034,1192.42,1191.01,0.795178,0.00360726
444.0,0.794864,568.199,1197.52,1196.11,0.793029,0.0014589
447.0,0.797148,568.364,1202.63,1201.21,0.793029,0.00145956
450.0,0.795173,568.529,1207.73,1206.31,0.793434,0.00186525
453.0,0.801987,568.694,1212.83,1211.41,0.793899,0.00233096
456.0,0.794805,568.858,1217.92,1216.5,0.794805,0.00323768
459.0,0.796754,569.023,1223.02,1221.59,0.796613,0.00504643
462.0,0.792766,569.188,1228.11,1226.68,0.794208,0.00264221
465.0,0.792583,569.353,1233.19,1231.76,0.792583,0.00101801
468.0,0.793655,569.518,1238.28,1236.85,0.793655,0.00209082
471.0,0.794831,569.683,1243.36,1241.92,0.794831,0.00326765
474.0,0.794903,569.847,1248.43,1247,0.793578,0.00201551
477.0,0.793014,570.012,1253.51,1252.07,0.793014,0.00145238
480.0,0.791854,570.177,1258.58,1257.14,0.793655,0.00209427
483.0,0.795771,570.342,1263.65,1262.21,0.793857,0.00229717
486.0,0.796356,570.507,1268.72,1267.27,0.793769,0.00221009
489.0,0.793734,570.672,1273.78,1272.33,0.792386,0.000828048
492.0,0.792183,570.836,1278.84,1277.39,0.792386,0.000829014
495.0,0.795893,571.001,1283.9,1282.44,0.795561,0.00400499
498.0,0.792529,571.166,1288.95,1287.5,0.792529,0.000973994
501.0,0.795161,571.331,1294,1292.55,0.795072,0.00351801
504.0,0.791811,571.496,1299.05,1297.59,0.792237,0.000684029
507.0,0.791818,571.661,1304.1,1302.63,0.792237,0.000685062
510.0,0.790485,571.825,1309.14,1307.67,0.792368,0.0008171
513.0,0.792666,571.99,1314.18,1312.71,0.792666,0.00111614
516.0,0.791881,572.155,1319.22,1317.75,0.792459,0.000910199
519.0,0.795637,572.32,1324.25,1322.78,0.795637,0.00408926
522.0,0.791669,572.485,1329.28,1327.81,0.793579,0.00203234
525.0,0.795481,572.65,1334.31,1332.83,0.794094,0.00254843
528.0,0.792133,572.815,1339.33,1337.86,0.792567,0.00102255
531.0,0.788543,572.979,1344.36,1342.88,0.791415,-0.000128331
534.0,0.792236,573.144,1349.38,1347.89,0.79226,0.000717783
537.0,0.79497,573.309,1354.39,1352.91,0.79226,0.000718899
540.0,0.791511,573.474,1359.41,1357.92,0.791511,-2.89747e-05
543.0,0.791027,573.639,1364.42,1362.93,0.792558,0.00101915
546.0,0.791872,573.804,1369.43,1367.93,0.791872,0.000334288
549.0,0.791522,573.968,1374.43,1372.94,0.79133,-0.000206574
552.0,0.797021,574.133,1379.43,1377.94,0.792026,0.00049056
555.0,0.789821,574.298,1384.43,1382.93,0.791736,0.000201695
558.0,0.79057,574.463,1389.43,1387.93,0.792149,0.000615822
561.0,0.79262,574.628,1394.42,1392.92,0.792149,0.000616947
564.0,0.790171,574.793,1399.41,1397.91,0.790866,-0.000664923
567.0,0.792961,574.957,1404.4,1402.89,0.791768,0.000238201
570.0,0.791034,575.122,1409.39,1407.87,0.790961,-0.000567672
573.0,0.804093,575.287,1414.37,1412.85,0.789967,-0.00156055
576.0,0.793598,575.452,1419.35,1417.83,0.791115,-0.000411437
579.0,0.796115,575.617,1424.32,1422.81,0.791248,-0.000277325
582.0,0.790991,575.782,1429.3,1427.78,0.790991,-0.000533201
585.0,0.80728,575.946,1434.27,1432.74,0.79102,-0.000503076
588.0,0.793134,576.111,1439.24,1437.71,0.790812,-0.000709951
591.0,0.789269,576.276,1444.2,1442.67,0.789869,-0.00165183
594.0,0.791651,576.441,1449.16,1447.63,0.792258,0.000738291
597.0,0.791738,576.606,1454.12,1452.59,0.791738,0.000219413
600.0,0.798338,576.771,1459.08,1457.54,0.791119,-0.000398468
603.0,0.788817,576.936,1464.03,1462.5,0.790804,-0.000712357
606.0,0.799584,577.1,1468.98,1467.44,0.792237,0.000721743
609.0,0.790921,577.265,1473.93,1472.39,0.791777,0.00026285
612.0,0.792278,577.43,1478.88,1477.33,0.792278,0.000764955
615.0,0.790007,577.595,1483.82,1482.27,0.789606,-0.00190594
618.0,0.792072,577.76,1488.76,1487.21,0.789606,-0.00190484
621.0,0.792506,577.925,1493.7,1492.14,0.792506,0.000996257
624.0,0.792934,578.089,1498.63,1497.08,0.792225,0.000716358
627.0,0.788541,578.254,1503.56,1502.01,0.78961,-0.00189753
630.0,0.819755,578.419,1508.49,1506.93,0.790552,-0.000954444
633.0,0.789073,578.584,1513.41,1511.85,0.7901,-0.00140536
636.0,0.790121,578.749,1518.34,1516.77,0.790121,-0.00138329
639.0,0.789557,578.914,1523.26,1521.69,0.790351,-0.00115223
642.0,0.79069,579.078,1528.17,1526.61,0.79031,-0.00119218
645.0,0.790151,579.243,1533.09,1531.52,0.790151,-0.00135015
648.0,0.788321,579.408,1538,1536.43,0.788321,-0.00317912
651.0,0.789611,579.573,1542.91,1541.33,0.789611,-0.00188813
654.0,0.789327,579.738,1547.82,1546.24,0.789674,-0.00182415
657.0,0.792402,579.903,1552.72,1551.14,0.79165,0.000152822
660.0,0.790165,580.067,1557.62,1556.04,0.79058,-0.00091621
663.0,0.79093,580.232,1562.52,1560.93,0.79058,-0.000915251
666.0,0.800045,580.397,1567.41,1565.83,0.789292,-0.0022023
669.0,0.790562,580.562,1572.3,1570.72,0.790562,-0.000931367
672.0,0.866477,580.727,1577.19,1575.6,0.789812,-0.00168044
675.0,0.790323,580.892,1582.08,1580.49,0.789176,-0.00231553
678.0,0.788847,581.057,1586.96,1585.37,0.788346,-0.00314463
681.0,0.789646,581.221,1591.84,1590.25,0.789901,-0.00158876
684.0,0.789246,581.386,1596.72,1595.12,0.789901,-0.00158791
687.0,0.79007,581.551,1601.6,1600,0.788374,-0.00311407
690.0,0.789098,581.716,1606.47,1604.87,0.788815,-0.00267225
693.0,0.786492,581.881,1611.34,1609.73,0.788511,-0.00297545
696.0,0.787922,582.046,1616.21,1614.6,0.788511,-0.00297469
699.0,0.788062,582.21,1621.07,1619.46,0.792151,0.000666063
702.0,0.794975,582.375,1625.93,1624.32,0.788342,-0.0031422
705.0,0.788928,582.54,1630.79,1629.18,0.788928,-0.00255546
708.0,0.792321,582.705,1635.65,1634.03,0.790221,-0.00126175
711.0,0.790426,582.87,1640.5,1638.88,0.790012,-0.00147005
714.0,0.789334,583.035,1645.35,1643.73,0.790012,-0.00146936
717.0,0.788581,583.199,1650.2,1648.57,0.7897,-0.00178068
720.0,0.791562,583.364,1655.04,1653.42,0.791452,-2.80144e-05
723.0,0.788461,583.529,1659.89,1658.26,0.789185,-0.00229436
726.0,0.791925,583.694,1664.73,1663.1,0.791925,0.000446277
729.0,0.790734,583.859,1669.56,1667.93,0.789981,-0.00149709
732.0,0.790362,584.024,1674.4,1672.76,0.789704,-0.00177346
735.0,0.790015,584.188,1679.23,1677.59,0.790015,-0.00146185
738.0,0.790773,584.353,1684.06,1682.42,0.790773,-0.000703249
741.0,0.789777,584.518,1688.88,1687.24,0.790388,-0.00108765
744.0,0.788962,584.683,1693.71,1692.06,0.788962,-0.00251306
747.0,0.792195,584.848,1698.53,1696.88,0.792195,0.000720528
750.0,0.78798,585.013,1703.35,1701.7,0.788596,-0.00287789
753.0,0.790676,585.178,1708.16,1706.51,0.790676,-0.000797338
756.0,0.790353,585.342,1712.97,1711.32,0.790353,-0.00111979
759.0,0.787319,585.507,1717.78,1716.13,0.789093,-0.00237926
762.0,0.789247,585.672,1722.59,1720.93,0.788906,-0.00256575
765.0,0.788652,585.837,1727.39,1725.73,0.788652,-0.00281928
768.0,0.789403,586.002,1732.2,1730.53,0.789403,-0.00206783
771.0,0.790819,586.167,1737,1735.33,0.789823,-0.0016474
774.0,0.792986,586.331,1741.79,1740.12,0.789492,-0.00197797
777.0,0.788764,586.496,1746.58,1744.91,0.788764,-0.00270556
780.0,0.787758,586.661,1751.38,1749.7,0.787833,-0.00363616
783.0,0.843587,586.826,1756.16,1754.49,0.787663,-0.0038058
786.0,0.792217,586.991,1760.95,1759.27,0.787663,-0.00380545
789.0,0.7914,587.156,1765.73,1764.05,0.788367,-0.00310113
792.0,0.790334,587.32,1770.51,1768.83,0.788367,-0.00310082
795.0,0.791271,587.485,1775.29,1773.61,0.786851,-0.00461655
798.0,0.800347,587.65,1780.06,1778.38,0.789362,-0.00210529
801.0,0.788377,587.815,1784.84,1783.15,0.788255,-0.00321205
804.0,0.788591,587.98,1789.61,1787.91,0.787536,-0.00393084
807.0,0.788227,588.145,1794.37,1792.68,0.78665,-0.00481666
810.0,0.786392,588.309,1799.14,1797.44,0.786392,-0.00507453
813.0,0.787489,588.474,1803.9,1802.2,0.788481,-0.00298542
816.0,0.788196,588.639,1808.66,1806.96,0.788196,-0.00327033
819.0,0.787644,588.804,1813.41,1811.71,0.787644,-0.00382226
822.0,0.786441,588.969,1818.17,1816.46,0.786862,-0.00460423
825.0,0.789764,589.134,1822.92,1821.21,0.788516,-0.00295022
828.0,0.790555,589.299,1827.66,1825.96,0.788359,-0.00310724
831.0,0.788096,589.463,1832.41,1830.7,0.788096,-0.00337028
834.0,0.78726,589.628,1837.15,1835.44,0.787754,-0.00371235
837.0,0.78682,589.793,1841.89,1840.18,0.787754,-0.00371244
840.0,0.787125,589.958,1846.63,1844.91,0.787125,-0.00434157
843.0,0.78969,590.123,1851.36,1849.65,0.787886,-0.00358073
846.0,0.792564,590.288,1856.1,1854.37,0.793462,0.00199509
849.0,0.786029,590.452,1860.83,1859.1,0.788692,-0.00277508
852.0,0.787312,590.617,1865.55,1863.83,0.788692,-0.00277528
855.0,0.788744,590.782,1870.28,1868.55,0.788909,-0.00255851
858.0,0.78778,590.947,1875,1873.27,0.78778,-0.00368775
861.0,0.789027,591.112,1879.72,1877.98,0.789027,-0.00244101
864.0,0.786863,591.277,1884.43,1882.7,0.790031,-0.0014373
867.0,0.802597,591.441,1889.15,1887.41,0.790031,-0.00143761
870.0,0.79004,591.606,1893.86,1892.12,0.788874,-0.00259492
873.0,0.792797,591.771,1898.57,1896.83,0.787575,-0.00389426
876.0,0.788901,591.936,1903.27,1901.53,0.787575,-0.00389461
879.0,0.788117,592.101,1907.98,1906.23,0.788117,-0.00335299
882.0,0.788027,592.266,1912.68,1910.93,0.789324,-0.00214639
885.0,0.786286,592.43,1917.38,1915.62,0.788866,-0.00260482
888.0,0.791023,592.595,1922.07,1920.32,0.78844,-0.00303127
891.0,0.787671,592.76,1926.76,1925.01,0.787304,-0.00416774
894.0,0.787224,592.925,1931.45,1929.7,0.787304,-0.00416825
897.0,0.788986,593.09,1936.14,1934.38,0.788272,-0.00320079
900.0,0.789277,593.255,1940.83,1939.06,0.787914,-0.00355936
903.0,0.787297,593.42,1945.51,1943.74,0.787447,-0.00402696
906.0,0.791781,593.584,1950.19,1948.42,0.791131,-0.000343596
909.0,0.789136,593.749,1954.86,1953.1,0.789735,-0.00174024
912.0,0.789161,593.914,1959.54,1957.77,0.789161,-0.0023149
915.0,0.788499,594.079,1964.21,1962.44,0.78733,-0.00414658
918.0,0.789767,594.244,1968.88,1967.11,0.78733,-0.0041473
921.0,0.788767,594.409,1973.55,1971.77,0.788304,-0.00317405
924.0,0.787642,594.573,1978.21,1976.43,0.788304,-0.00317482
927.0,0.789002,594.738,1982.87,1981.09,0.789002,-0.00247763
930.0,0.785997,594.903,1987.53,1985.75,0.788337,-0.00314345
933.0,0.789873,595.068,1992.19,1990.4,0.789873,-0.00160831
936.0,0.78551,595.233,1996.84,1995.05,0.788572,-0.00291017
939.0,0.791455,595.398,2001.49,1999.7,0.790127,-0.00135607
942.0,0.787224,595.562,2006.14,2004.35,0.788031,-0.00345298
945.0,0.787898,595.727,2010.79,2008.99,0.787898,-0.00358691
948.0,0.788976,595.892,2015.43,2013.63,0.788974,-0.00251187
951.0,0.789828,596.057,2020.07,2018.27,0.790939,-0.000547852
954.0,0.788244,596.222,2024.71,2022.91,0.789407,-0.00208084
957.0,0.787232,596.387,2029.35,2027.54,0.787232,-0.00425684
960.0,0.787538,596.551,2033.98,2032.17,0.787538,-0.00395189
963.0,0.787522,596.716,2038.61,2036.8,0.790338,-0.00115296
966.0,0.787029,596.881,2043.24,2041.43,0.787177,-0.00431506
969.0,0.791682,597.046,2047.86,2046.05,0.788376,-0.00311718
972.0,0.790029,597.211,2052.49,2050.67,0.790029,-0.00146532
975.0,0.793634,597.376,2057.11,2055.29,0.78899,-0.00250548
978.0,0.789152,597.541,2061.73,2059.91,0.788758,-0.00273865
981.0,0.785365,597.705,2066.34,2064.52,0.788698,-0.00279984
984.0,0.789673,597.87,2070.95,2069.13,0.789673,-0.00182607
987.0,0.790427,598.035,2075.56,2073.74,0.790427,-0.00107331
990.0,0.788384,598.2,2080.17,2078.34,0.78807,-0.00343156
993.0,0.78747,598.365,2084.78,2082.95,0.78747,-0.00403285
996.0,0.794554,598.53,2089.38,2087.55,0.788628,-0.00287617
999.0,0.794831,598.694,2093.98,2092.15,0.788999,-0.00250651
1002.0,0.788775,598.859,2098.58,2096.74,0.788671,-0.00283585
1005.0,0.78795,599.024,2103.17,2101.33,0.78795,-0.00355822
1008.0,0.791946,599.189,2107.77,2105.93,0.788655,-0.00285462
1011.0,0.789271,599.354,2112.36,2110.51,0.788655,-0.00285603
1014.0,0.787851,599.519,2116.94,2115.1,0.787851,-0.00366147
1017.0,0.787528,599.683,2121.53,2119.68,0.788199,-0.00331494
1020.0,0.789605,599.848,2126.11,2124.26,0.790234,-0.00128144
1023.0,0.788095,600.013,2130.69,2128.84,0.789081,-0.00243594
1026.0,0.786894,600.178,2135.27,2133.41,0.788475,-0.00304347
1029.0,0.790287,600.343,2139.84,2137.99,0.78961,-0.00191002
1032.0,0.789888,600.508,2144.42,2142.56,0.789888,-0.0016336
1035.0,0.786481,600.672,2148.99,2147.13,0.789951,-0.00157218
1038.0,0.787053,600.837,2153.55,2151.69,0.78876,-0.00276479
1041.0,0.789107,601.002,2158.12,2156.25,0.789999,-0.00152742
1044.0,0.799062,601.167,2162.68,2160.81,0.789999,-0.00152907
1047.0,0.785902,601.332,2167.24,2165.37,0.788333,-0.00319673
1050.0,0.788652,601.497,2171.8,2169.93,0.788652,-0.00287941
1053.0,0.788362,601.662,2176.35,2174.48,0.788517,-0.00301613
1056.0,0.788435,601.826,2180.9,2179.03,0.788517,-0.00301786
1059.0,0.788893,601.991,2185.45,2183.58,0.788893,-0.00264362
1062.0,0.788607,602.156,2190,2188.12,0.788607,-0.0029314
1065.0,0.787515,602.321,2194.55,2192.67,0.788423,-0.0031172
1068.0,0.790363,602.486,2199.09,2197.21,0.789558,-0.00198402
1071.0,0.789929,602.651,2203.63,2201.74,0.789746,-0.00179786
1074.0,0.790567,602.815,2208.17,2206.28,0.78942,-0.00212572
1077.0,0.788726,602.98,2212.7,2210.81,0.788917,-0.00263059
1080.0,0.790446,603.145,2217.23,2215.34,0.789587,-0.00196248
1083.0,0.793474,603.31,2221.76,2219.87,0.793474,0.00192261
1086.0,0.789344,603.475,2226.29,2224.4,0.793434,0.0018807
1089.0,0.791361,603.64,2230.82,2228.92,0.791361,-0.000194217
1092.0,0.79036,603.804,2235.34,2233.44,0.789436,-0.00212115
1095.0,0.796446,603.969,2239.86,2237.96,0.789436,-0.00212309
1098.0,0.792649,604.134,2244.38,2242.47,0.788536,-0.00302504
1101.0,0.794149,604.299,2248.89,2246.99,0.790865,-0.000697991
1104.0,0.789352,604.464,2253.41,2251.5,0.790865,-0.000699945
1107.0,0.789869,604.629,2257.92,2256,0.789869,-0.00169791
1110.0,0.788736,604.794,2262.42,2260.51,0.790656,-0.00091288
1113.0,0.792245,604.958,2266.93,2265.01,0.792245,0.000674137
1116.0,0.789762,605.123,2271.43,2269.51,0.791536,-3.68442e-05
1119.0,0.794634,605.288,2275.93,2274.01,0.793669,0.00209417
1122.0,0.792546,605.453,2280.43,2278.51,0.790257,-0.0013198
1125.0,0.791829,605.618,2284.93,2283,0.790257,-0.00132177
1128.0,0.791687,605.783,2289.42,2287.49,0.791299,-0.000281762
1131.0,0.790354,605.947,2293.91,2291.98,0.790354,-0.00122876
1134.0,0.794007,606.112,2298.4,2296.47,0.79048,-0.00110477
1137.0,0.79444,606.277,2302.88,2300.95,0.792568,0.000981215
1140.0,0.790884,606.442,2307.37,2305.43,0.791843,0.000254217
1143.0,0.789197,606.607,2311.85,2309.91,0.791297,-0.000293776
1146.0,0.792686,606.772,2316.33,2314.39,0.792194,0.000601226
1149.0,0.789817,606.936,2320.8,2318.86,0.790089,-0.00150577
1152.0,0.791049,607.101,2325.28,2323.33,0.789507,-0.00208978
1155.0,0.79672,607.266,2329.75,2327.8,0.79004,-0.0015588
1158.0,0.793039,607.431,2334.22,2332.27,0.790339,-0.00126182
1161.0,0.791819,607.596,2338.68,2336.73,0.791819,0.000216164
1164.0,0.791112,607.761,2343.15,2341.19,0.789952,-0.00165285
1167.0,0.796782,607.925,2347.61,2345.65,0.789952,-0.00165488
1170.0,0.788992,608.09,2352.07,2350.11,0.789305,-0.0023039
1173.0,0.794469,608.255,2356.52,2354.57,0.792474,0.000863059
1176.0,0.789837,608.42,2360.98,2359.02,0.791608,-4.97148e-06
1179.0,0.789123,608.585,2365.43,2363.47,0.790517,-0.00109801
1182.0,0.789248,608.75,2369.88,2367.91,0.790045,-0.00157205
1185.0,0.78891,608.915,2374.33,2372.36,0.792605,0.000985894
1188.0,0.790805,609.079,2378.77,2376.8,0.792083,0.00046183
1191.0,0.791017,609.244,2383.21,2381.24,0.791017,-0.000606239
1194.0,0.792472,609.409,2387.65,2385.68,0.792472,0.000846686
1197.0,0.791015,609.574,2392.09,2390.12,0.79361,0.00198262
1200.0,0.793714,609.739,2396.52,2394.55,0.793714,0.00208456
1203.0,0.791197,609.904,2400.96,2398.98,0.790379,-0.00125249
1206.0,0.791663,610.068,2405.39,2403.41,0.791546,-8.75608e-05
1209.0,0.791953,610.233,2409.82,2407.83,0.791473,-0.000162631
1212.0,0.791662,610.398,2414.24,2412.26,0.791262,-0.000375707
1215.0,0.790869,610.563,2418.66,2416.68,0.790965,-0.000674792
1218.0,0.790112,610.728,2423.08,2421.1,0.790535,-0.00110688
1221.0,0.793828,610.893,2427.5,2425.51,0.79072,-0.000923982
1224.0,0.790979,611.057,2431.92,2429.93,0.7908,-0.000846082
1227.0,0.791887,611.222,2436.33,2434.34,0.7908,-0.000848194
1230.0,0.791038,611.387,2440.74,2438.75,0.791038,-0.000612315
1233.0,0.791859,611.552,2445.15,2443.15,0.791144,-0.000508445
1236.0,0.78933,611.717,2449.56,2447.56,0.790855,-0.000799581
1239.0,0.791334,611.882,2453.96,2451.96,0.791284,-0.000372729
1242.0,0.79251,612.046,2458.36,2456.36,0.791284,-0.000374881
1245.0,0.795334,612.211,2462.76,2460.75,0.790481,-0.00118004
1248.0,0.791723,612.376,2467.16,2465.15,0.792396,0.000732816
1251.0,0.79123,612.541,2471.55,2469.54,0.79123,-0.000435319
1254.0,0.791338,612.706,2475.95,2473.93,0.791338,-0.000329451
1257.0,0.792849,612.871,2480.34,2478.32,0.792849,0.00117941
1260.0,0.792447,613.036,2484.72,2482.71,0.792447,0.00077529
1263.0,0.789208,613.2,2489.11,2487.09,0.789531,-0.00214283
1266.0,0.791992,613.365,2493.49,2491.47,0.791992,0.000316043
1269.0,0.792101,613.53,2497.87,2495.85,0.792101,0.000422916
1272.0,0.791302,613.695,2502.25,2500.22,0.791302,-0.000378207
1275.0,0.79541,613.86,2506.63,2504.6,0.791365,-0.000317332
1278.0,0.790379,614.025,2511,2508.97,0.790654,-0.00103045
1281.0,0.790853,614.189,2515.37,2513.34,0.790853,-0.000833576
1284.0,0.790945,614.354,2519.74,2517.7,0.79087,-0.000818705
1287.0,0.806,614.519,2524.1,2522.07,0.792103,0.000412156
1290.0,0.79247,614.684,2528.47,2526.43,0.792103,0.000410017
1293.0,0.793137,614.849,2532.83,2530.79,0.792739,0.00104387
1296.0,0.793035,615.014,2537.19,2535.15,0.792769,0.00107174
1299.0,0.792361,615.178,2541.55,2539.5,0.791789,8.96133e-05
1302.0,0.794478,615.343,2545.9,2543.85,0.791435,-0.000266514
1305.0,0.792118,615.508,2550.25,2548.2,0.791615,-8.8639e-05
1308.0,0.790247,615.673,2554.6,2552.55,0.791615,-9.07617e-05
1311.0,0.790682,615.838,2558.95,2556.9,0.791541,-0.000166884
1314.0,0.791401,616.003,2563.3,2561.24,0.791401,-0.000309003
1317.0,0.792369,616.167,2567.64,2565.58,0.792259,0.000546875
1320.0,0.796624,616.332,2571.98,2569.92,0.791933,0.000218763
1323.0,0.804103,616.497,2576.32,2574.26,0.79184,0.00012367
1326.0,0.793764,616.662,2580.65,2578.59,0.791622,-9.64248e-05
1329.0,0.791773,616.827,2584.99,2582.92,0.791773,5.24859e-05
1332.0,0.791739,616.992,2589.32,2587.25,0.791297,-0.000425603
1335.0,0.795039,617.157,2593.65,2591.58,0.790271,-0.0014537
1338.0,0.794793,617.321,2597.97,2595.9,0.793278,0.00155121
1341.0,0.791742,617.486,2602.3,2600.22,0.793278,0.00154912
1344.0,0.792703,617.651,2606.62,2604.54,0.792703,0.000972042
1347.0,0.794772,617.816,2610.94,2608.86,0.793624,0.00189098
1350.0,0.799577,617.981,2615.26,2613.18,0.793624,0.00188893
1353.0,0.792156,618.146,2619.57,2617.49,0.792156,0.000418887
1356.0,0.792832,618.31,2623.89,2621.8,0.792742,0.00100285
1359.0,0.792763,618.475,2628.2,2626.11,0.792763,0.00102182
1362.0,0.792423,618.64,2632.5,2630.42,0.792423,0.000679807
1365.0,0.790938,618.805,2636.81,2634.72,0.791284,-0.000461203
1368.0,0.791747,618.97,2641.11,2639.02,0.791747,-2.13276e-07
1371.0,0.7909,619.135,2645.42,2643.32,0.79156,-0.000189215
1374.0,0.791072,619.299,2649.71,2647.62,0.791889,0.000137783
1377.0,0.793991,619.464,2654.01,2651.91,0.793991,0.00223779
1380.0,0.79618,619.629,2658.31,2656.21,0.794885,0.00312981
1383.0,0.791379,619.794,2662.6,2660.5,0.791379,-0.000378145
1386.0,0.793733,619.959,2666.89,2664.78,0.793733,0.00197389
1389.0,0.795133,620.124,2671.18,2669.07,0.795133,0.00337195
1392.0,0.804181,620.288,2675.46,2673.35,0.792078,0.000315035
1395.0,0.79544,620.453,2679.74,2677.63,0.793425,0.00166013
1398.0,0.792083,620.618,2684.03,2681.91,0.792816,0.00104923
1401.0,0.791934,620.783,2688.3,2686.19,0.791934,0.000165348
1404.0,0.789351,620.948,2692.58,2690.46,0.792153,0.000382465
1407.0,0.790079,621.113,2696.85,2694.74,0.792577,0.000804582
1410.0,0.793762,621.278,2701.13,2699.01,0.792661,0.000886699
1413.0,0.793892,621.442,2705.4,2703.27,0.793892,0.00211583
1416.0,0.794098,621.607,2709.66,2707.54,0.794098,0.00231996
1419.0,0.794493,621.772,2713.93,2711.8,0.794493,0.00271313
1422.0,0.79871,621.937,2718.19,2716.06,0.792974,0.00119231
1425.0,0.792739,622.102,2722.45,2720.32,0.792739,0.000955498
1428.0,0.800619,622.267,2726.71,2724.58,0.794041,0.00225569
1431.0,0.791906,622.431,2730.96,2728.83,0.793377,0.00158988
1434.0,0.795498,622.596,2735.22,2733.08,0.793377,0.00158809
1437.0,0.796018,622.761,2739.47,2737.33,0.793155,0.00136431
1440.0,0.792373,622.926,2743.72,2741.58,0.794357,0.00256455
1443.0,0.794123,623.091,2747.97,2745.82,0.794357,0.00256281
1446.0,0.795272,623.256,2752.21,2750.07,0.795004,0.00320808
1449.0,0.791608,623.42,2756.45,2754.31,0.793005,0.00120737
1452.0,0.791596,623.585,2760.69,2758.55,0.792143,0.00034367
1455.0,0.793494,623.75,2764.93,2762.78,0.793494,0.00169297
1458.0,0.790237,623.915,2769.17,2767.01,0.792411,0.000608285
1461.0,0.805111,624.08,2773.4,2771.25,0.793493,0.0016886
1464.0,0.791837,624.245,2777.63,2775.48,0.792396,0.000589924
1467.0,0.790488,624.409,2781.86,2779.7,0.791727,-8.07511e-05
1470.0,0.790464,624.574,2786.09,2783.93,0.79251,0.000700568
1473.0,0.792451,624.739,2790.31,2788.15,0.792801,0.000989887
1476.0,0.792632,624.904,2794.53,2792.37,0.792632,0.000819211
1479.0,0.793672,625.069,2798.75,2796.59,0.793672,0.00185754
1482.0,0.791679,625.234,2802.97,2800.8,0.792614,0.000797887
1485.0,0.792688,625.399,2807.19,2805.02,0.792688,0.000870244
1488.0,0.790604,625.563,2811.4,2809.23,0.794171,0.00235161
1491.0,0.792872,625.728,2815.61,2813.44,0.793851,0.00202998
1494.0,0.792157,625.893,2819.82,2817.65,0.793052,0.00122938
1497.0,0.790623,626.058,2824.03,2821.85,0.793052,0.00122779
1500.0,0.790308,626.223,2828.23,2826.05,0.792506,0.000680206
1503.0,0.793126,626.388,2832.44,2830.25,0.792506,0.00067862
1506.0,0.793327,626.552,2836.64,2834.45,0.793327,0.00149804
1509.0,0.790302,626.717,2840.83,2838.65,0.793266,0.00143547
1512.0,0.79308,626.882,2845.03,2842.84,0.793091,0.00125892
1515.0,0.807315,627.047,2849.22,2847.03,0.79433,0.00249638
1518.0,0.791259,627.212,2853.41,2851.22,0.791649,-0.000186153
1521.0,0.792847,627.377,2857.6,2855.41,0.792847,0.00101032
1524.0,0.794187,627.541,2861.79,2859.59,0.793113,0.0012748
1527.0,0.793157,627.706,2865.97,2863.78,0.793157,0.00131729
1530.0,0.794007,627.871,2870.16,2867.96,0.793939,0.00209779
1533.0,0.794764,628.036,2874.34,2872.14,0.793644,0.0018013
1536.0,0.793044,628.201,2878.52,2876.31,0.793044,0.00119983
1539.0,0.794383,628.366,2882.69,2880.49,0.794249,0.00240337
1542.0,0.792105,628.53,2886.87,2884.66,0.79524,0.00339292
1545.0,0.801157,628.695,2891.04,2888.83,0.79524,0.00339149
1548.0,0.793195,628.86,2895.21,2892.99,0.793143,0.00129307
1551.0,0.793483,629.025,2899.37,2897.16,0.793143,0.00129165
1554.0,0.792256,629.19,2903.54,2901.32,0.792576,0.00072325
1557.0,0.793578,629.355,2907.7,2905.48,0.793578,0.00172386
1560.0,0.792608,629.52,2911.86,2909.64,0.792746,0.000890495
1563.0,0.792549,629.684,2916.02,2913.8,0.792549,0.000692149
1566.0,0.792685,629.849,2920.18,2917.95,0.792685,0.000826811
1569.0,0.79065,630.014,2924.33,2922.1,0.791886,2.64793e-05
1572.0,0.793054,630.179,2928.48,2926.25,0.796358,0.00449715
1575.0,0.794766,630.344,2932.63,2930.4,0.794766,0.00290382
1578.0,0.793006,630.509,2936.78,2934.55,0.794247,0.00238352
1581.0,0.794147,630.673,2940.93,2938.69,0.794698,0.00283324
1584.0,0.795017,630.838,2945.07,2942.83,0.795017,0.00315099
1587.0,0.795125,631.003,2949.21,2946.97,0.795223,0.00335576
1590.0,0.79302,631.168,2953.35,2951.11,0.794365,0.00249654
1593.0,0.794495,631.333,2957.49,2955.24,0.794495,0.00262533
1596.0,0.806596,631.498,2961.62,2959.38,0.797722,0.00585116
1599.0,0.793048,631.662,2965.75,2963.51,0.794459,0.00258699
1602.0,0.794531,631.827,2969.88,2967.64,0.794459,0.00258585
1605.0,0.796447,631.992,2974.01,2971.76,0.794864,0.00298974
1608.0,0.792621,632.157,2978.14,2975.89,0.794332,0.00245665
1611.0,0.791529,632.322,2982.26,2980.01,0.793339,0.00146258
1614.0,0.793927,632.487,2986.38,2984.13,0.793927,0.00204952
1617.0,0.792773,632.651,2990.5,2988.24,0.794428,0.00254948
1620.0,0.793541,632.816,2994.62,2992.36,0.794738,0.00285845
1623.0,0.792898,632.981,2998.73,2996.47,0.79557,0.00368945
1626.0,0.79698,633.146,3002.85,3000.58,0.795675,0.00379347
1629.0,0.794104,633.311,3006.96,3004.69,0.79549,0.00360753
1632.0,0.796487,633.476,3011.07,3008.8,0.796407,0.00452363
1635.0,0.79394,633.641,3015.17,3012.91,0.795684,0.00379976
1638.0,0.794874,633.805,3019.28,3017.01,0.7949,0.00301493
1641.0,0.795401,633.97,3023.38,3021.11,0.795344,0.00345812
1644.0,0.796073,634.135,3027.48,3025.21,0.795068,0.00318134
1647.0,0.795814,634.3,3031.58,3029.3,0.795068,0.0031806
1650.0,0.796487,634.465,3035.68,3033.4,0.796487,0.00459888
1653.0,0.797426,634.63,3039.77,3037.49,0.796551,0.00466219
1656.0,0.79697,634.794,3043.86,3041.58,0.79697,0.00508055
1659.0,0.796204,634.959,3047.95,3045.67,0.796204,0.00431394
1662.0,0.797961,635.124,3052.04,3049.75,0.797497,0.00560635
1665.0,0.797357,635.289,3056.12,3053.84,0.797313,0.0054218
1668.0,0.797109,635.454,3060.21,3057.92,0.7968,0.0049083
1671.0,0.796023,635.619,3064.29,3062,0.7968,0.00490783
1674.0,0.803155,635.783,3068.37,3066.07,0.797284,0.0053914
1677.0,0.794413,635.948,3072.44,3070.15,0.796327,0.00443399
1680.0,0.797197,636.113,3076.52,3074.22,0.796638,0.00474462
1683.0,0.796359,636.278,3080.59,3078.29,0.796364,0.0044703
1686.0,0.79762,636.443,3084.66,3082.36,0.796463,0.00456901
1689.0,0.796892,636.608,3088.73,3086.43,0.796965,0.00507077
1692.0,0.797224,636.772,3092.8,3090.49,0.797224,0.00532955
1695.0,0.797812,636.937,3096.86,3094.55,0.797812,0.00591737
1698.0,0.801222,637.102,3100.92,3098.61,0.801222,0.00932723
1701.0,0.798096,637.267,3104.98,3102.67,0.800234,0.00833909
1704.0,0.796784,637.432,3109.04,3106.73,0.800574,0.00867897
1707.0,0.80138,637.597,3113.1,3110.78,0.800643,0.00874787
1710.0,0.800083,637.762,3117.15,3114.83,0.800952,0.00905677
1713.0,0.798852,637.926,3121.2,3118.88,0.800952,0.00905667
1716.0,0.800151,638.091,3125.25,3122.93,0.800399,0.00850357
1719.0,0.801588,638.256,3129.3,3126.98,0.801588,0.00969246
1722.0,0.804381,638.421,3133.34,3131.02,0.801905,0.0100094
1725.0,0.802777,638.586,3137.39,3135.06,0.801109,0.00921326
1728.0,0.802926,638.751,3141.43,3139.1,0.802926,0.0110302
1731.0,0.802107,638.915,3145.47,3143.14,0.803485,0.0115891
1734.0,0.801717,639.08,3149.51,3147.17,0.804653,0.012757
1737.0,0.806944,639.245,3153.54,3151.21,0.80475,0.0128539
1740.0,0.806632,639.41,3157.57,3155.24,0.805236,0.0133398
1743.0,0.804182,639.575,3161.6,3159.27,0.804582,0.0126857
1746.0,0.805029,639.74,3165.63,3163.29,0.806061,0.0141645
1749.0,0.809604,639.904,3169.66,3167.32,0.807936,0.0160394
1752.0,0.807824,640.069,3173.68,3171.34,0.807384,0.0154873
1755.0,0.806571,640.234,3177.71,3175.36,0.807384,0.0154872
1758.0,0.809093,640.399,3181.73,3179.38,0.809428,0.0175311
1761.0,0.808929,640.564,3185.75,3183.4,0.808929,0.017032
1764.0,0.809934,640.729,3189.76,3187.41,0.809934,0.0180369
1767.0,0.811286,640.893,3193.78,3191.42,0.813161,0.0212638
1770.0,0.810477,641.058,3197.79,3195.43,0.812558,0.0206607
1773.0,0.814918,641.223,3201.8,3199.44,0.812912,0.0210146
1776.0,0.813657,641.388,3205.81,3203.45,0.812912,0.0210145
1779.0,0.812032,641.553,3209.81,3207.45,0.813766,0.0218684
1782.0,0.815072,641.718,3213.82,3211.45,0.815072,0.0231743
1785.0,0.81364,641.883,3217.82,3215.45,0.813895,0.0219972
1788.0,0.815124,642.047,3221.82,3219.45,0.813895,0.0219971
1791.0,0.813295,642.212,3225.82,3223.45,0.812986,0.021088
1794.0,0.812724,642.377,3229.81,3227.44,0.812986,0.0210879
1797.0,0.812256,642.542,3233.81,3231.43,0.813044,0.0211458
1800.0,0.813372,642.707,3237.8,3235.42,0.813044,0.0211457
1803.0,0.815287,642.872,3241.79,3239.41,0.813894,0.0219956
1806.0,0.817961,643.036,3245.77,3243.4,0.813894,0.0219955
1809.0,0.824994,643.201,3249.76,3247.38,0.814106,0.0222074
1812.0,0.812836,643.366,3253.74,3251.36,0.813018,0.0211193
1815.0,0.81409,643.531,3257.72,3255.34,0.816383,0.0244842
1818.0,0.811521,643.696,3261.7,3259.32,0.814818,0.0229191
1821.0,0.813097,643.861,3265.68,3263.29,0.814362,0.022463
1824.0,0.81458,644.025,3269.66,3267.27,0.814699,0.0227999
1827.0,0.812067,644.19,3273.63,3271.24,0.815317,0.0234178
1830.0,0.817097,644.355,3277.6,3275.21,0.815317,0.0234177
1833.0,0.813853,644.52,3281.57,3279.18,0.813739,0.0218396
1836.0,0.813889,644.685,3285.54,3283.14,0.813889,0.0219895
1839.0,0.814249,644.85,3289.5,3287.1,0.813541,0.0216414
1842.0,0.812203,645.015,3293.47,3291.07,0.813541,0.0216413
1845.0,0.812466,645.179,3297.43,3295.02,0.813799,0.0218992
1848.0,0.816728,645.344,3301.39,3298.98,0.814945,0.0230451
1851.0,0.812677,645.509,3305.34,3302.94,0.813225,0.021325
1854.0,0.817325,645.674,3309.3,3306.89,0.813075,0.0211749
1857.0,0.809805,645.839,3313.25,3310.84,0.811601,0.0197008
1860.0,0.812888,646.004,3317.2,3314.79,0.812888,0.0209877
1863.0,0.812369,646.168,3321.15,3318.74,0.813714,0.0218136
1866.0,0.81142,646.333,3325.1,3322.68,0.811796,0.0198955
1869.0,0.810574,646.498,3329.04,3326.63,0.811796,0.0198954
1872.0,0.812988,646.663,3332.98,3330.57,0.811851,0.0199503
1875.0,0.813349,646.828,3336.93,3334.51,0.810835,0.0189342
1878.0,0.813046,646.993,3340.86,3338.44,0.810424,0.0185231
1881.0,0.810676,647.157,3344.8,3342.38,0.810676,0.018775
1884.0,0.80828,647.322,3348.74,3346.31,0.810814,0.0189129
1887.0,0.813085,647.487,3352.67,3350.24,0.810847,0.0189458
1890.0,0.811155,647.652,3356.6,3354.17,0.811155,0.0192537
1893.0,0.809704,647.817,3360.53,3358.1,0.809704,0.0178026
1896.0,0.813898,647.982,3364.46,3362.02,0.810275,0.0183735
1899.0,0.808561,648.146,3368.38,3365.95,0.810275,0.0183734
1902.0,0.807374,648.311,3372.3,3369.87,0.80885,0.0169483
1905.0,0.80915,648.476,3376.22,3373.79,0.809198,0.0172962
1908.0,0.809059,648.641,3380.14,3377.7,0.8097,0.0177981
1911.0,0.809379,648.806,3384.06,3381.62,0.809379,0.017477
1914.0,0.806536,648.971,3387.98,3385.53,0.809298,0.0173959
1917.0,0.809369,649.136,3391.89,3389.44,0.809533,0.0176308
1920.0,0.810016,649.3,3395.8,3393.35,0.810016,0.0181136
1923.0,0.807573,649.465,3399.71,3397.26,0.8094,0.0174975
1926.0,0.806429,649.63,3403.62,3401.16,0.80866,0.0167574
1929.0,0.810694,649.795,3407.52,3405.07,0.808661,0.0167583
1932.0,0.813857,649.96,3411.42,3408.97,0.808957,0.0170542
1935.0,0.809812,650.125,3415.32,3412.87,0.808423,0.0165201
1938.0,0.812099,650.289,3419.22,3416.76,0.807176,0.015273
1941.0,0.807961,650.454,3423.12,3420.66,0.807059,0.0151559
1944.0,0.813054,650.619,3427.02,3424.55,0.808097,0.0161938
1947.0,0.806904,650.784,3430.91,3428.44,0.80858,0.0166767
1950.0,0.807466,650.949,3434.8,3432.33,0.80858,0.0166766
1953.0,0.808395,651.114,3438.69,3436.22,0.809078,0.0171745
1956.0,0.806489,651.278,3442.58,3440.11,0.809078,0.0171744
1959.0,0.806367,651.443,3446.46,3443.99,0.807286,0.0153823
1962.0,0.805326,651.608,3450.34,3447.87,0.805682,0.0137782
1965.0,0.807238,651.773,3454.23,3451.75,0.806285,0.0143811
1968.0,0.813044,651.938,3458.11,3455.63,0.807494,0.01559
1971.0,0.80671,652.103,3461.98,3459.5,0.80725,0.0153459
1974.0,0.806708,652.267,3465.86,3463.38,0.806708,0.0148038
1977.0,0.806335,652.432,3469.73,3467.25,0.806335,0.0144307
1980.0,0.807888,652.597,3473.6,3471.12,0.806335,0.0144306
1983.0,0.807465,652.762,3477.47,3474.99,0.80584,0.0139355
1986.0,0.806949,652.927,3481.34,3478.85,0.806318,0.0144134
1989.0,0.806123,653.092,3485.21,3482.72,0.807146,0.0152413
1992.0,0.8067,653.257,3489.07,3486.58,0.807893,0.0159882
1995.0,0.807417,653.421,3492.93,3490.44,0.807893,0.0159881
1998.0,0.804742,653.586,3496.79,3494.3,0.805016,0.013111
2001.0,0.805472,653.751,3500.65,3498.15,0.803893,0.0119879
2004.0,0.804729,653.916,3504.51,3502.01,0.804729,0.0128238
2007.0,0.80241,654.081,3508.36,3505.86,0.805286,0.0133807
2010.0,0.802537,654.246,3512.21,3509.71,0.80399,0.0120846
2013.0,0.804427,654.41,3516.06,3513.56,0.803918,0.0120125
2016.0,0.801611,654.575,3519.91,3517.4,0.80184,0.00993439
2019.0,0.803383,654.74,3523.76,3521.25,0.801497,0.00959129
2022.0,0.800176,654.905,3527.6,3525.09,0.800344,0.00843819
2025.0,0.800678,655.07,3531.44,3528.93,0.800678,0.00877209
2028.0,0.799244,655.235,3535.28,3532.77,0.800115,0.00820899
2031.0,0.800045,655.399,3539.12,3536.61,0.800045,0.00813888
2034.0,0.800496,655.564,3542.96,3540.44,0.800496,0.00858979
2037.0,0.79769,655.729,3546.79,3544.27,0.79769,0.00578371
2040.0,0.799732,655.894,3550.63,3548.1,0.799674,0.00776766
2043.0,0.801778,656.059,3554.46,3551.93,0.799674,0.00776762
2046.0,0.798388,656.224,3558.28,3555.76,0.798388,0.0064816
2047.0,0.800115,656.279,3559.56,3557.04,0.798388,0.0064816