File: data/processed/processed_data/2024-10-11/2024-10-11_sodiumsulfatepowder_n_n_n_solid_10000_0_5.csv
Pixels #,Intensity (a.u.),Wavelength (nm),Raman shift (cm-1),Raman shift (cm-1) adjusted,Filtered Intensity (a.u.),Baselined Filtered Intensity (a.u.)
0.0,0.816854,543.803,407.968,406.929,0.816854,0.0181245
3.0,0.814593,543.967,413.541,412.499,0.816714,0.0179845
6.0,0.816349,544.132,419.11,418.065,0.81671,0.0179805
9.0,0.817425,544.297,424.676,423.628,0.817174,0.0184445
12.0,0.82126,544.462,430.238,429.188,0.816392,0.0176625
15.0,0.818745,544.627,435.797,434.744,0.816392,0.0176625
18.0,0.819972,544.792,441.353,440.297,0.816182,0.0174525
21.0,0.816646,544.957,446.905,445.847,0.815026,0.0162965
24.0,0.814166,545.121,452.454,451.393,0.81593,0.0172005
27.0,0.815708,545.286,457.999,456.936,0.816722,0.0179925
30.0,0.817818,545.451,463.542,462.476,0.817818,0.0190885
33.0,0.816761,545.616,469.08,468.012,0.818219,0.0194895
36.0,0.817098,545.781,474.616,473.545,0.817595,0.0188655
39.0,0.848368,545.946,480.148,479.075,0.819958,0.0212285
42.0,0.815642,546.11,485.677,484.601,0.817535,0.0188055
45.0,0.818895,546.275,491.202,490.124,0.817535,0.0188055
48.0,0.82094,546.44,496.725,495.643,0.818684,0.0199545
51.0,0.817149,546.605,502.243,501.16,0.817923,0.0191935
54.0,0.82929,546.77,507.759,506.672,0.819209,0.0204795
57.0,0.816024,546.935,513.271,512.182,0.816432,0.0177025
60.0,0.819732,547.099,518.78,517.688,0.816432,0.0177025
63.0,0.817255,547.264,524.285,523.191,0.817605,0.0188755
66.0,0.816653,547.429,529.788,528.691,0.81802,0.0192905
69.0,0.816877,547.594,535.287,534.187,0.817537,0.0188075
72.0,0.815519,547.759,540.782,539.68,0.815519,0.0167895
75.0,0.816391,547.924,546.275,545.17,0.816391,0.0176615
78.0,0.818865,548.088,551.763,550.656,0.817388,0.0186585
81.0,0.819497,548.253,557.249,556.139,0.817388,0.0186585
84.0,0.817167,548.418,562.732,561.619,0.81711,0.0183805
87.0,0.8154,548.583,568.211,567.096,0.816677,0.0179475
90.0,0.819071,548.748,573.686,572.569,0.818135,0.0194055
93.0,0.815311,548.913,579.159,578.039,0.816206,0.0174765
96.0,0.817253,549.078,584.628,583.506,0.816899,0.0181695
99.0,0.817709,549.242,590.094,588.969,0.817403,0.0186735
102.0,0.817776,549.407,595.557,594.429,0.817403,0.0186735
105.0,0.819605,549.572,601.016,599.886,0.819605,0.0208755
108.0,0.817097,549.737,606.472,605.339,0.817097,0.0183675
111.0,0.815735,549.902,611.925,610.79,0.815735,0.0170055
114.0,0.818263,550.067,617.375,616.237,0.818774,0.0200445
117.0,0.818965,550.231,622.821,621.68,0.819862,0.0211325
120.0,0.818873,550.396,628.264,627.121,0.819862,0.0211325
123.0,0.817142,550.561,633.704,632.558,0.819513,0.0207835
126.0,0.81766,550.726,639.14,637.992,0.819513,0.0207835
129.0,0.817686,550.891,644.574,643.423,0.818333,0.0196035
132.0,0.820659,551.056,650.004,648.85,0.818333,0.0196035
135.0,0.815801,551.22,655.431,654.274,0.815801,0.0170715
138.0,0.814261,551.385,660.854,659.695,0.815974,0.0172445
141.0,0.81469,551.55,666.274,665.113,0.816853,0.0181235
144.0,0.815984,551.715,671.691,670.528,0.815991,0.0172615
147.0,0.813376,551.88,677.105,675.939,0.81484,0.0161105
150.0,0.814924,552.045,682.516,681.347,0.814924,0.0161945
153.0,0.813345,552.209,687.923,686.752,0.81374,0.0150105
156.0,0.814543,552.374,693.327,692.153,0.81423,0.0155005
159.0,0.824971,552.539,698.728,697.552,0.814356,0.0156265
162.0,0.813675,552.704,704.126,702.947,0.814221,0.0154915
165.0,0.811111,552.869,709.52,708.339,0.81341,0.0146805
168.0,0.814016,553.034,714.912,713.727,0.814016,0.0152865
171.0,0.813074,553.199,720.3,719.113,0.815534,0.0168045
174.0,0.81394,553.363,725.684,724.495,0.815478,0.0167485
177.0,0.811566,553.528,731.066,729.874,0.813207,0.0144775
180.0,0.81518,553.693,736.444,735.25,0.81518,0.0164505
183.0,0.813725,553.858,741.82,740.623,0.815582,0.0168525
186.0,0.814658,554.023,747.192,745.992,0.815232,0.0165025
189.0,0.813091,554.188,752.561,751.359,0.813091,0.0143615
192.0,0.815273,554.352,757.926,756.722,0.812856,0.0141265
195.0,0.81298,554.517,763.289,762.082,0.81298,0.0142505
198.0,0.813891,554.682,768.648,767.438,0.813099,0.0143695
201.0,0.811892,554.847,774.004,772.792,0.811892,0.0131625
204.0,0.813187,555.012,779.357,778.142,0.813187,0.0144575
207.0,0.811863,555.177,784.706,783.489,0.812303,0.0135735
210.0,0.810848,555.341,790.053,788.833,0.812303,0.0135735
213.0,0.81466,555.506,795.396,794.174,0.81466,0.0159305
216.0,0.815132,555.671,800.737,799.512,0.81507,0.0163405
219.0,0.81122,555.836,806.074,804.846,0.814052,0.0153225
222.0,0.812611,556.001,811.407,810.178,0.813689,0.0149595
225.0,0.815866,556.166,816.738,815.506,0.814038,0.0153085
228.0,0.813184,556.33,822.066,820.831,0.814339,0.0156095
231.0,0.81414,556.495,827.39,826.153,0.814757,0.0160275
234.0,0.814856,556.66,832.711,831.472,0.814757,0.0160275
237.0,0.812221,556.825,838.029,836.787,0.816388,0.0176585
240.0,0.814619,556.99,843.344,842.1,0.816085,0.0173555
243.0,0.813698,557.155,848.656,847.409,0.815001,0.0162715
246.0,0.814551,557.32,853.965,852.715,0.814551,0.0158215
249.0,0.830317,557.484,859.27,858.018,0.815866,0.0171365
252.0,0.814365,557.649,864.572,863.318,0.814365,0.0156355
255.0,0.813591,557.814,869.872,868.615,0.814128,0.0153985
258.0,0.813066,557.979,875.168,873.908,0.814128,0.0153985
261.0,0.816719,558.144,880.461,879.199,0.814715,0.0159855
264.0,0.811967,558.309,885.751,884.486,0.813585,0.0148555
267.0,0.818527,558.473,891.037,889.77,0.814446,0.0157165
270.0,0.816043,558.638,896.321,895.051,0.814875,0.0161455
273.0,0.822359,558.803,901.601,900.329,0.814875,0.0161455
276.0,0.813438,558.968,906.879,905.604,0.813438,0.0147085
279.0,0.81468,559.133,912.153,910.876,0.813487,0.0147575
282.0,0.815603,559.298,917.424,916.145,0.813399,0.0146695
285.0,0.81314,559.462,922.692,921.41,0.81314,0.0144105
288.0,0.811619,559.627,927.957,926.673,0.812748,0.0140185
291.0,0.814426,559.792,933.219,931.932,0.814426,0.0156965
294.0,0.814802,559.957,938.478,937.188,0.814802,0.0160725
297.0,0.815096,560.122,943.733,942.441,0.815796,0.0170665
300.0,0.813911,560.287,948.986,947.691,0.815796,0.0170665
303.0,0.813851,560.452,954.235,952.938,0.814226,0.0154965
306.0,0.814559,560.616,959.482,958.182,0.814606,0.0158765
309.0,0.816684,560.781,964.725,963.423,0.815393,0.0166635
312.0,0.814674,560.946,969.965,968.661,0.815571,0.0168415
315.0,0.817129,561.111,975.202,973.896,0.817671,0.0189415
318.0,0.831214,561.276,980.436,979.127,0.831214,0.0324845
321.0,0.928274,561.441,985.667,984.356,0.928274,0.129544
324.0,0.989834,561.605,990.895,989.581,0.989834,0.191104
327.0,0.993128,561.77,996.12,994.803,0.993128,0.194398
330.0,0.951077,561.935,1001.34,1000.02,0.951077,0.152347
333.0,0.846935,562.1,1006.56,1005.24,0.846935,0.0482055
336.0,0.820005,562.265,1011.78,1010.45,0.820005,0.0212755
339.0,0.816247,562.43,1016.99,1015.66,0.816007,0.0172775
342.0,0.809513,562.594,1022.2,1020.87,0.812219,0.0134895
345.0,0.810803,562.759,1027.4,1026.07,0.811643,0.0129135
348.0,0.809508,562.924,1032.61,1031.27,0.811026,0.0122965
351.0,0.81282,563.089,1037.81,1036.47,0.811839,0.0131095
354.0,0.808918,563.254,1043.01,1041.67,0.810396,0.0116665
357.0,0.810966,563.419,1048.2,1046.86,0.810036,0.0113065
360.0,0.809482,563.583,1053.39,1052.05,0.809482,0.0107525
363.0,0.811701,563.748,1058.58,1057.23,0.810181,0.0114515
366.0,0.810462,563.913,1063.77,1062.42,0.809246,0.0105165
369.0,0.812847,564.078,1068.95,1067.6,0.809246,0.0105165
372.0,0.8091,564.243,1074.13,1072.77,0.809773,0.0110435
375.0,0.808708,564.408,1079.3,1077.95,0.809773,0.0110435
378.0,0.816739,564.573,1084.48,1083.12,0.810106,0.0113765
381.0,0.813982,564.737,1089.65,1088.28,0.813982,0.0152525
384.0,0.823143,564.902,1094.81,1093.45,0.823143,0.0244135
387.0,0.829263,565.067,1099.98,1098.61,0.829263,0.0305335
390.0,0.829307,565.232,1105.14,1103.77,0.828717,0.0299875
393.0,0.822212,565.397,1110.3,1108.93,0.822212,0.0234825
396.0,0.814209,565.562,1115.45,1114.08,0.814209,0.0154795
399.0,0.813246,565.726,1120.6,1119.23,0.813246,0.0145165
402.0,0.816063,565.891,1125.75,1124.37,0.816063,0.0173335
405.0,0.831568,566.056,1130.9,1129.52,0.818672,0.0199425
408.0,0.820822,566.221,1136.04,1134.66,0.818502,0.0197725
411.0,0.815379,566.386,1141.18,1139.8,0.817088,0.0183585
414.0,0.817148,566.551,1146.32,1144.93,0.818141,0.0194115
417.0,0.823658,566.715,1151.45,1150.06,0.820568,0.0218385
420.0,0.820304,566.88,1156.58,1155.19,0.820304,0.0215745
423.0,0.816029,567.045,1161.71,1160.32,0.816029,0.0172995
426.0,0.810538,567.21,1166.84,1165.44,0.809398,0.0106685
429.0,0.805628,567.375,1171.96,1170.56,0.806758,0.00802848
432.0,0.807917,567.54,1177.08,1175.68,0.807917,0.0091875
435.0,0.806926,567.704,1182.19,1180.79,0.807528,0.00879855
438.0,0.804187,567.869,1187.31,1185.9,0.805835,0.00710559
441.0,0.80753,568.034,1192.42,1191.01,0.805835,0.00710568
444.0,0.80603,568.199,1197.52,1196.11,0.804551,0.00582182
447.0,0.807135,568.364,1202.63,1201.21,0.804002,0.005273
450.0,0.805424,568.529,1207.73,1206.31,0.804002,0.00527322
453.0,0.813093,568.694,1212.83,1211.41,0.804764,0.00603548
456.0,0.805431,568.858,1217.92,1216.5,0.805431,0.00670278
459.0,0.807215,569.023,1223.02,1221.59,0.807215,0.00848712
462.0,0.803747,569.188,1228.11,1226.68,0.805034,0.00630648
465.0,0.803174,569.353,1233.19,1231.76,0.803466,0.00473889
468.0,0.804193,569.518,1238.28,1236.85,0.804193,0.00546634
471.0,0.806178,569.683,1243.36,1241.92,0.805576,0.00684985
474.0,0.80528,569.847,1248.43,1247,0.803692,0.00496639
477.0,0.803799,570.012,1253.51,1252.07,0.803799,0.00507398
480.0,0.802434,570.177,1258.58,1257.14,0.803916,0.0051916
483.0,0.805926,570.342,1263.65,1262.21,0.804383,0.00565927
486.0,0.806333,570.507,1268.72,1267.27,0.804425,0.00570199
489.0,0.804122,570.672,1273.78,1272.33,0.802715,0.00399274
492.0,0.802637,570.836,1278.84,1277.39,0.802715,0.00399353
495.0,0.805419,571.001,1283.9,1282.44,0.805419,0.00669836
498.0,0.80294,571.166,1288.95,1287.5,0.80294,0.00422023
501.0,0.80515,571.331,1294,1292.55,0.804459,0.00574014
504.0,0.801563,571.496,1299.05,1297.59,0.801581,0.00286309
507.0,0.80204,571.661,1304.1,1302.63,0.80204,0.00332306
510.0,0.800468,571.825,1309.14,1307.67,0.802204,0.00348805
513.0,0.80258,571.99,1314.18,1312.71,0.80258,0.00386508
516.0,0.801264,572.155,1319.22,1317.75,0.802713,0.00399913
519.0,0.805896,572.32,1324.25,1322.78,0.805896,0.0071832
522.0,0.801578,572.485,1329.28,1327.81,0.803836,0.00512429
525.0,0.806558,572.65,1334.31,1332.83,0.803952,0.00524141
528.0,0.802415,572.815,1339.33,1337.86,0.802459,0.00374956
531.0,0.798869,572.979,1344.36,1342.88,0.801511,0.00280275
534.0,0.802308,573.144,1349.38,1347.89,0.802308,0.00360095
537.0,0.804643,573.309,1354.39,1352.91,0.801515,0.00280916
540.0,0.800658,573.474,1359.41,1357.92,0.800658,0.00195341
543.0,0.800669,573.639,1364.42,1362.93,0.802224,0.00352067
546.0,0.801724,573.804,1369.43,1367.93,0.801724,0.00302196
549.0,0.801244,573.968,1374.43,1372.94,0.800679,0.00197828
552.0,0.806879,574.133,1379.43,1377.94,0.801977,0.00327762
555.0,0.799947,574.298,1384.43,1382.93,0.800402,0.00170398
558.0,0.79969,574.463,1389.43,1387.93,0.800587,0.00189035
561.0,0.801444,574.628,1394.42,1392.92,0.800587,0.00189173
564.0,0.799707,574.793,1399.41,1397.91,0.800236,0.00154213
567.0,0.801466,574.957,1404.4,1402.89,0.80087,0.00217755
570.0,0.800412,575.122,1409.39,1407.87,0.799959,0.00126798
573.0,0.812378,575.287,1414.37,1412.85,0.799063,0.000373424
576.0,0.802466,575.452,1419.35,1417.83,0.799436,0.000747871
579.0,0.804811,575.617,1424.32,1422.81,0.800038,0.00135133
582.0,0.800019,575.782,1429.3,1427.78,0.800019,0.00133382
585.0,0.816343,575.946,1434.27,1432.74,0.799646,0.000962321
588.0,0.801398,576.111,1439.24,1437.71,0.799394,0.000711833
591.0,0.797788,576.276,1444.2,1442.67,0.798572,-0.000108646
594.0,0.800675,576.441,1449.16,1447.63,0.800788,0.00210888
597.0,0.799964,576.606,1454.12,1452.59,0.799964,0.00128643
600.0,0.805818,576.771,1459.08,1457.54,0.799983,0.00130699
603.0,0.798169,576.936,1464.03,1462.5,0.799814,0.00113955
606.0,0.808127,577.1,1468.98,1467.44,0.80119,0.00251711
609.0,0.799429,577.265,1473.93,1472.39,0.800811,0.00213969
612.0,0.800519,577.43,1478.88,1477.33,0.800811,0.00214128
615.0,0.798313,577.595,1483.82,1482.27,0.798251,-0.000417113
618.0,0.800959,577.76,1488.76,1487.21,0.798443,-0.000223506
621.0,0.800985,577.925,1493.7,1492.14,0.801192,0.00252711
624.0,0.802018,578.089,1498.63,1497.08,0.801192,0.00252876
627.0,0.796962,578.254,1503.56,1502.01,0.79778,-0.000881583
630.0,0.828078,578.419,1508.49,1506.93,0.799021,0.000361073
633.0,0.797592,578.584,1513.41,1511.85,0.798977,0.000318733
636.0,0.798666,578.749,1518.34,1516.77,0.798738,8.13939e-05
639.0,0.797544,578.914,1523.26,1521.69,0.798738,8.30526e-05
642.0,0.798367,579.078,1528.17,1526.61,0.798367,-0.000286294
645.0,0.798049,579.243,1533.09,1531.52,0.798049,-0.000602644
648.0,0.797649,579.408,1538,1536.43,0.797649,-0.001001
651.0,0.797147,579.573,1542.91,1541.33,0.797147,-0.00150136
654.0,0.798417,579.738,1547.82,1546.24,0.798417,-0.000229743
657.0,0.80028,579.903,1552.72,1551.14,0.800211,0.00156588
660.0,0.798398,580.067,1557.62,1556.04,0.799079,0.000435514
663.0,0.798601,580.232,1562.52,1560.93,0.798601,-4.08498e-05
666.0,0.808239,580.397,1567.41,1565.83,0.798369,-0.000271213
669.0,0.798518,580.562,1572.3,1570.72,0.798489,-0.000149581
672.0,0.874239,580.727,1577.19,1575.6,0.798174,-0.000462953
675.0,0.797658,580.892,1582.08,1580.49,0.79734,-0.00129533
678.0,0.796509,581.057,1586.96,1585.37,0.796234,-0.00239972
681.0,0.796711,581.221,1591.84,1590.25,0.797009,-0.00162313
684.0,0.79631,581.386,1596.72,1595.12,0.797009,-0.00162155
687.0,0.797977,581.551,1601.6,1600,0.796642,-0.00198698
690.0,0.796889,581.716,1606.47,1604.87,0.796884,-0.00174343
693.0,0.795013,581.881,1611.34,1609.73,0.796394,-0.00223189
696.0,0.796163,582.046,1616.21,1614.6,0.796394,-0.00223038
699.0,0.796761,582.21,1621.07,1619.46,0.800734,0.00211113
702.0,0.802436,582.375,1625.93,1624.32,0.796138,-0.00248336
705.0,0.796946,582.54,1630.79,1629.18,0.796946,-0.00167386
708.0,0.800545,582.705,1635.65,1634.03,0.797713,-0.000905371
711.0,0.798837,582.87,1640.5,1638.88,0.79771,-0.000906887
714.0,0.797051,583.035,1645.35,1643.73,0.798017,-0.000598408
717.0,0.796056,583.199,1650.2,1648.57,0.798017,-0.000596937
720.0,0.799009,583.364,1655.04,1653.42,0.7988,0.000187527
723.0,0.795965,583.529,1659.89,1658.26,0.796644,-0.00196702
726.0,0.798244,583.694,1664.73,1663.1,0.798244,-0.000365581
729.0,0.797837,583.859,1669.56,1667.93,0.796341,-0.00226714
732.0,0.797149,584.024,1674.4,1672.76,0.796255,-0.00235172
735.0,0.796698,584.188,1679.23,1677.59,0.796698,-0.00190732
738.0,0.797121,584.353,1684.06,1682.42,0.797168,-0.00143592
741.0,0.796892,584.518,1688.88,1687.24,0.79715,-0.00145254
744.0,0.796945,584.683,1693.71,1692.06,0.796945,-0.00165616
747.0,0.79948,584.848,1698.53,1696.88,0.79948,0.000880219
750.0,0.795425,585.013,1703.35,1701.7,0.796015,-0.00258341
753.0,0.798125,585.178,1708.16,1706.51,0.798125,-0.000472058
756.0,0.797977,585.342,1712.97,1711.32,0.797977,-0.000618717
759.0,0.79554,585.507,1717.78,1716.13,0.796481,-0.00211338
762.0,0.796949,585.672,1722.59,1720.93,0.796762,-0.00183107
765.0,0.796871,585.837,1727.39,1725.73,0.796762,-0.00182978
768.0,0.79812,586.002,1732.2,1730.53,0.797894,-0.000696516
771.0,0.798117,586.167,1737,1735.33,0.797894,-0.000695254
774.0,0.800977,586.331,1741.79,1740.12,0.797013,-0.001575
777.0,0.796541,586.496,1746.58,1744.91,0.796659,-0.00192774
780.0,0.794603,586.661,1751.38,1749.7,0.795156,-0.0034295
783.0,0.850082,586.826,1756.16,1754.49,0.795831,-0.00275329
786.0,0.799813,586.991,1760.95,1759.27,0.795459,-0.00312409
789.0,0.799197,587.156,1765.73,1764.05,0.797154,-0.00142791
792.0,0.798191,587.32,1770.51,1768.83,0.797154,-0.00142674
795.0,0.799717,587.485,1775.29,1773.61,0.79536,-0.00321959
798.0,0.808019,587.65,1780.06,1778.38,0.797278,-0.00130045
801.0,0.797034,587.815,1784.84,1783.15,0.796892,-0.00168532
804.0,0.796371,587.98,1789.61,1787.91,0.795968,-0.00260821
807.0,0.796348,588.145,1794.37,1792.68,0.795526,-0.00304912
810.0,0.795307,588.309,1799.14,1797.44,0.795307,-0.00326706
813.0,0.796223,588.474,1803.9,1802.2,0.796758,-0.00181502
816.0,0.79671,588.639,1808.66,1806.96,0.79671,-0.00186199
819.0,0.795554,588.804,1813.41,1811.71,0.795554,-0.00301697
822.0,0.795041,588.969,1818.17,1816.46,0.795524,-0.00304598
825.0,0.796955,589.134,1822.92,1821.21,0.79616,-0.00240901
828.0,0.79878,589.299,1827.66,1825.96,0.796414,-0.00215406
831.0,0.796556,589.463,1832.41,1830.7,0.796414,-0.00215312
834.0,0.795234,589.628,1837.15,1835.44,0.796102,-0.0024642
837.0,0.794208,589.793,1841.89,1840.18,0.796102,-0.00246329
840.0,0.79555,589.958,1846.63,1844.91,0.79555,-0.00301441
843.0,0.796994,590.123,1851.36,1849.65,0.796676,-0.00188755
846.0,0.800295,590.288,1856.1,1854.37,0.802246,0.0036833
849.0,0.794062,590.452,1860.83,1859.1,0.797012,-0.00154985
852.0,0.795367,590.617,1865.55,1863.83,0.797012,-0.00154901
855.0,0.796915,590.782,1870.28,1868.55,0.797556,-0.0010042
858.0,0.796494,590.947,1875,1873.27,0.796492,-0.00206739
861.0,0.797523,591.112,1879.72,1877.98,0.797523,-0.00103559
864.0,0.795099,591.277,1884.43,1882.7,0.798055,-0.00050281
867.0,0.81051,591.441,1889.15,1887.41,0.797988,-0.000569035
870.0,0.79809,591.606,1893.86,1892.12,0.797134,-0.00142226
873.0,0.801203,591.771,1898.57,1896.83,0.796172,-0.00238349
876.0,0.797132,591.936,1903.27,1901.53,0.795843,-0.00271173
879.0,0.795912,592.101,1907.98,1906.23,0.795912,-0.00264199
882.0,0.796497,592.266,1912.68,1910.93,0.797474,-0.00107926
885.0,0.794913,592.43,1917.38,1915.62,0.797349,-0.00120355
888.0,0.798987,592.595,1922.07,1920.32,0.797349,-0.00120284
891.0,0.796277,592.76,1926.76,1925.01,0.796116,-0.00243514
894.0,0.796022,592.925,1931.45,1929.7,0.796116,-0.00243446
897.0,0.797899,593.09,1936.14,1934.38,0.796691,-0.00185881
900.0,0.798075,593.255,1940.83,1939.06,0.796123,-0.00242617
903.0,0.795874,593.42,1945.51,1943.74,0.795874,-0.00267454
906.0,0.800472,593.584,1950.19,1948.42,0.799864,0.00131606
909.0,0.797205,593.749,1954.86,1953.1,0.797843,-0.000704335
912.0,0.797046,593.914,1959.54,1957.77,0.797046,-0.00150074
915.0,0.797666,594.079,1964.21,1962.44,0.79611,-0.00243615
918.0,0.797781,594.244,1968.88,1967.11,0.79538,-0.00316559
921.0,0.796686,594.409,1973.55,1971.77,0.796686,-0.00185904
924.0,0.795796,594.573,1978.21,1976.43,0.796964,-0.00158052
927.0,0.797963,594.738,1982.87,1981.09,0.797739,-0.000805004
930.0,0.794153,594.903,1987.53,1985.75,0.796715,-0.0018285
933.0,0.797906,595.068,1992.19,1990.4,0.797906,-0.000637017
936.0,0.793894,595.233,1996.84,1995.05,0.797027,-0.00151554
939.0,0.799779,595.398,2001.49,1999.7,0.798094,-0.000448079
942.0,0.794391,595.562,2006.14,2004.35,0.79615,-0.00239162
945.0,0.796092,595.727,2010.79,2008.99,0.796092,-0.00244919
948.0,0.796997,595.892,2015.43,2013.63,0.796997,-0.00154378
951.0,0.798916,596.057,2020.07,2018.27,0.799629,0.00108863
954.0,0.797309,596.222,2024.71,2022.91,0.797309,-0.00123096
957.0,0.796239,596.387,2029.35,2027.54,0.796239,-0.00230055
960.0,0.795233,596.551,2033.98,2032.17,0.795233,-0.00330616
963.0,0.796157,596.716,2038.61,2036.8,0.798824,0.000285204
966.0,0.795032,596.881,2043.24,2041.43,0.796013,-0.00252544
969.0,0.800771,597.046,2047.86,2046.05,0.796201,-0.0023371
972.0,0.798278,597.211,2052.49,2050.67,0.798359,-0.000178763
975.0,0.802163,597.376,2057.11,2055.29,0.798359,-0.000178432
978.0,0.797566,597.541,2061.73,2059.91,0.797048,-0.0014891
981.0,0.794169,597.705,2066.34,2064.52,0.796825,-0.00171178
984.0,0.798477,597.87,2070.95,2069.13,0.798477,-5.94765e-05
987.0,0.799082,598.035,2075.56,2073.74,0.798672,0.00013582
990.0,0.79752,598.2,2080.17,2078.34,0.796479,-0.00205688
993.0,0.796396,598.365,2084.78,2082.95,0.796396,-0.0021396
996.0,0.803067,598.53,2089.38,2087.55,0.796847,-0.00168835
999.0,0.803304,598.694,2093.98,2092.15,0.797346,-0.00118909
1002.0,0.797621,598.859,2098.58,2096.74,0.797621,-0.000913827
1005.0,0.796355,599.024,2103.17,2101.33,0.796355,-0.00217957
1008.0,0.800641,599.189,2107.77,2105.93,0.797704,-0.000830336
1011.0,0.798327,599.354,2112.36,2110.51,0.797704,-0.000830105
1014.0,0.795754,599.519,2116.94,2115.1,0.795861,-0.00267288
1017.0,0.79627,599.683,2121.53,2119.68,0.79627,-0.00226367
1020.0,0.798245,599.848,2126.11,2124.26,0.799346,0.00081252
1023.0,0.796298,600.013,2130.69,2128.84,0.798025,-0.000508288
1026.0,0.795731,600.178,2135.27,2133.41,0.79758,-0.000953104
1029.0,0.798851,600.343,2139.84,2137.99,0.797829,-0.000703931
1032.0,0.798663,600.508,2144.42,2142.56,0.797829,-0.000703767
1035.0,0.794969,600.672,2148.99,2147.13,0.797507,-0.0010256
1038.0,0.795592,600.837,2153.55,2151.69,0.79661,-0.00192245
1041.0,0.79796,601.002,2158.12,2156.25,0.798407,-0.000125313
1044.0,0.808041,601.167,2162.68,2160.81,0.798407,-0.000125171
1047.0,0.79439,601.332,2167.24,2165.37,0.796139,-0.00239304
1050.0,0.797651,601.497,2171.8,2169.93,0.797651,-0.000880925
1053.0,0.79688,601.662,2176.35,2174.48,0.797321,-0.00121082
1056.0,0.797319,601.826,2180.9,2179.03,0.797321,-0.00121073
1059.0,0.798025,601.991,2185.45,2183.58,0.7975,-0.00103165
1062.0,0.796999,602.156,2190,2188.12,0.797207,-0.00132457
1065.0,0.795766,602.321,2194.55,2192.67,0.796313,-0.0022185
1068.0,0.798281,602.486,2199.09,2197.21,0.798061,-0.000470445
1071.0,0.798132,602.651,2203.63,2201.74,0.798132,-0.000399399
1074.0,0.799211,602.815,2208.17,2206.28,0.798257,-0.000274355
1077.0,0.796582,602.98,2212.7,2210.81,0.797568,-0.00096331
1080.0,0.799012,603.145,2217.23,2215.34,0.799012,0.000480725
1083.0,0.801281,603.31,2221.76,2219.87,0.801281,0.00274976
1086.0,0.797474,603.475,2226.29,2224.4,0.801844,0.00331281
1089.0,0.79942,603.64,2230.82,2228.92,0.79942,0.000888851
1092.0,0.798577,603.804,2235.34,2233.44,0.797645,-0.000886107
1095.0,0.80502,603.969,2239.86,2237.96,0.797645,-0.000886071
1098.0,0.800751,604.134,2244.38,2242.47,0.797339,-0.00119204
1101.0,0.802282,604.299,2248.89,2246.99,0.799094,0.000562998
1104.0,0.798129,604.464,2253.41,2251.5,0.799094,0.000563046
1107.0,0.798036,604.629,2257.92,2256,0.798036,-0.000494899
1110.0,0.796685,604.794,2262.42,2260.51,0.798982,0.000451152
1113.0,0.801425,604.958,2266.93,2265.01,0.800012,0.00148121
1116.0,0.797807,605.123,2271.43,2269.51,0.798742,0.000211275
1119.0,0.803529,605.288,2275.93,2274.01,0.801715,0.00318435
1122.0,0.801493,605.453,2280.43,2278.51,0.799213,0.000682435
1125.0,0.800581,605.618,2284.93,2283,0.799213,0.000682529
1128.0,0.799445,605.783,2289.42,2287.49,0.799226,0.000695627
1131.0,0.798878,605.947,2293.91,2291.98,0.798008,-0.000522273
1134.0,0.80128,606.112,2298.4,2296.47,0.798561,3.08237e-05
1137.0,0.802416,606.277,2302.88,2300.95,0.801332,0.00280193
1140.0,0.798457,606.442,2307.37,2305.43,0.799766,0.00123606
1143.0,0.796931,606.607,2311.85,2309.91,0.799459,0.000929207
1146.0,0.801123,606.772,2316.33,2314.39,0.800545,0.00201535
1149.0,0.7986,606.936,2320.8,2318.86,0.7986,7.05151e-05
1152.0,0.798946,607.101,2325.28,2323.33,0.797357,-0.00117232
1155.0,0.804944,607.266,2329.75,2327.8,0.798621,9.18373e-05
1158.0,0.801071,607.431,2334.22,2332.27,0.798767,0.000237994
1161.0,0.80033,607.596,2338.68,2336.73,0.799306,0.000777167
1164.0,0.799479,607.761,2343.15,2341.19,0.798336,-0.00019265
1167.0,0.805005,607.925,2347.61,2345.65,0.798336,-0.000192465
1170.0,0.798233,608.09,2352.07,2350.11,0.798233,-0.000295284
1173.0,0.802901,608.255,2356.52,2354.57,0.799973,0.0014449
1176.0,0.798207,608.42,2360.98,2359.02,0.799973,0.0014451
1179.0,0.79818,608.585,2365.43,2363.47,0.799206,0.000678311
1182.0,0.797701,608.75,2369.88,2367.91,0.798524,-3.47344e-06
1185.0,0.796919,608.915,2374.33,2372.36,0.800773,0.00224575
1188.0,0.799832,609.079,2378.77,2376.8,0.799917,0.00138997
1191.0,0.798735,609.244,2383.21,2381.24,0.798735,0.000208198
1194.0,0.799847,609.409,2387.65,2385.68,0.800321,0.00179443
1197.0,0.799379,609.574,2392.09,2390.12,0.801937,0.00341067
1200.0,0.80211,609.739,2396.52,2394.55,0.80211,0.00358394
1203.0,0.799542,609.904,2400.96,2398.98,0.798305,-0.000220787
1206.0,0.800053,610.068,2405.39,2403.41,0.799513,0.000987491
1209.0,0.799864,610.233,2409.82,2407.83,0.799513,0.000987778
1212.0,0.80011,610.398,2414.24,2412.26,0.799274,0.00074907
1215.0,0.799505,610.563,2418.66,2416.68,0.799274,0.000749368
1218.0,0.797719,610.728,2423.08,2421.1,0.798239,-0.000285327
1221.0,0.802066,610.893,2427.5,2425.51,0.799708,0.00118398
1224.0,0.799495,611.057,2431.92,2429.93,0.798864,0.000340291
1227.0,0.799966,611.222,2436.33,2434.34,0.798864,0.000340607
1230.0,0.799229,611.387,2440.74,2438.75,0.798958,0.000434925
1233.0,0.799801,611.552,2445.15,2443.15,0.799012,0.000489244
1236.0,0.797522,611.717,2449.56,2447.56,0.799012,0.000489567
1239.0,0.799596,611.882,2453.96,2451.96,0.799462,0.00093989
1242.0,0.8002,612.046,2458.36,2456.36,0.799444,0.000922223
1245.0,0.802865,612.211,2462.76,2460.75,0.798528,6.56215e-06
1248.0,0.799374,612.376,2467.16,2465.15,0.800385,0.0018639
1251.0,0.799204,612.541,2471.55,2469.54,0.800025,0.00150426
1254.0,0.799218,612.706,2475.95,2473.93,0.800025,0.00150462
1257.0,0.801498,612.871,2480.34,2478.32,0.801498,0.00297799
1260.0,0.800421,613.036,2484.72,2482.71,0.800421,0.00190139
1263.0,0.797934,613.2,2489.11,2487.09,0.797934,-0.000585209
1266.0,0.800262,613.365,2493.49,2491.47,0.800262,0.0017432
1269.0,0.799182,613.53,2497.87,2495.85,0.799431,0.000912613
1272.0,0.799273,613.695,2502.25,2500.22,0.799509,0.00099104
1275.0,0.803688,613.86,2506.63,2504.6,0.799509,0.000991474
1278.0,0.798238,614.025,2511,2508.97,0.798849,0.000331912
1281.0,0.798438,614.189,2515.37,2513.34,0.79876,0.000243356
1284.0,0.798661,614.354,2519.74,2517.7,0.798661,0.000144806
1287.0,0.814736,614.519,2524.1,2522.07,0.800038,0.00152226
1290.0,0.799809,614.684,2528.47,2526.43,0.799809,0.00129372
1293.0,0.802006,614.849,2532.83,2530.79,0.80048,0.00196518
1296.0,0.80106,615.014,2537.19,2535.15,0.80048,0.00196566
1299.0,0.801524,615.178,2541.55,2539.5,0.800355,0.00184116
1302.0,0.803001,615.343,2545.9,2543.85,0.799922,0.00140868
1305.0,0.800071,615.508,2550.25,2548.2,0.799922,0.00140919
1308.0,0.798729,615.673,2554.6,2552.55,0.799836,0.00132372
1311.0,0.798793,615.838,2558.95,2556.9,0.799836,0.00132427
1314.0,0.799724,616.003,2563.3,2561.24,0.799724,0.00121282
1317.0,0.799997,616.167,2567.64,2565.58,0.799997,0.00148639
1320.0,0.805143,616.332,2571.98,2569.92,0.800428,0.00191797
1323.0,0.812039,616.497,2576.32,2574.26,0.799828,0.00131856
1326.0,0.801134,616.662,2580.65,2578.59,0.799458,0.000949148
1329.0,0.799948,616.827,2584.99,2582.92,0.799948,0.00143975
1332.0,0.799837,616.992,2589.32,2587.25,0.799687,0.00117937
1335.0,0.80234,617.157,2593.65,2591.58,0.79833,-0.000177002
1338.0,0.802802,617.321,2597.97,2595.9,0.800644,0.00213763
1341.0,0.799249,617.486,2602.3,2600.22,0.800644,0.00213827
1344.0,0.800466,617.651,2606.62,2604.54,0.800466,0.00196092
1347.0,0.802502,617.816,2610.94,2608.86,0.801682,0.00317758
1350.0,0.806083,617.981,2615.26,2613.18,0.801276,0.00277226
1353.0,0.800151,618.146,2619.57,2617.49,0.800151,0.00164795
1356.0,0.800509,618.31,2623.89,2621.8,0.800509,0.00200666
1359.0,0.800516,618.475,2628.2,2626.11,0.800595,0.00209339
1362.0,0.800185,618.64,2632.5,2630.42,0.800185,0.00168413
1365.0,0.798602,618.805,2636.81,2634.72,0.799245,0.000744892
1368.0,0.799359,618.97,2641.11,2639.02,0.799722,0.00122266
1371.0,0.797518,619.135,2645.42,2643.32,0.799536,0.00103744
1374.0,0.798197,619.299,2649.71,2647.62,0.799536,0.00103822
1377.0,0.801297,619.464,2654.01,2651.91,0.801601,0.003104
1380.0,0.803144,619.629,2658.31,2656.21,0.802593,0.0040968
1383.0,0.799593,619.794,2662.6,2660.5,0.799314,0.000818596
1386.0,0.801459,619.959,2666.89,2664.78,0.801459,0.0029644
1389.0,0.802625,620.124,2671.18,2669.07,0.802625,0.00413122
1392.0,0.81164,620.288,2675.46,2673.35,0.799538,0.00104504
1395.0,0.803194,620.453,2679.74,2677.63,0.801504,0.00301187
1398.0,0.799073,620.618,2684.03,2681.91,0.800564,0.0020727
1401.0,0.799554,620.783,2688.3,2686.19,0.799712,0.00122156
1404.0,0.796603,620.948,2692.58,2690.46,0.799374,0.000884425
1407.0,0.797208,621.113,2696.85,2694.74,0.799374,0.000885295
1410.0,0.801223,621.278,2701.13,2699.01,0.800355,0.00186717
1413.0,0.800677,621.442,2705.4,2703.27,0.800677,0.00219006
1416.0,0.801345,621.607,2709.66,2707.54,0.801345,0.00285896
1419.0,0.801857,621.772,2713.93,2711.8,0.801693,0.00320789
1422.0,0.806441,621.937,2718.19,2716.06,0.800712,0.00222784
1425.0,0.799883,622.102,2722.45,2720.32,0.799883,0.00139979
1428.0,0.808043,622.267,2726.71,2724.58,0.801775,0.00329275
1431.0,0.79976,622.431,2730.96,2728.83,0.801239,0.00275772
1434.0,0.802986,622.596,2735.22,2733.08,0.801239,0.00275871
1437.0,0.803629,622.761,2739.47,2737.33,0.800444,0.00196471
1440.0,0.799846,622.926,2743.72,2741.58,0.802127,0.00364871
1443.0,0.802354,623.091,2747.97,2745.82,0.802274,0.00379674
1446.0,0.802333,623.256,2752.21,2750.07,0.802333,0.00385679
1449.0,0.79947,623.42,2756.45,2754.31,0.80089,0.00241485
1452.0,0.799553,623.585,2760.69,2758.55,0.799605,0.00113093
1455.0,0.801593,623.75,2764.93,2762.78,0.80147,0.00299703
1458.0,0.797061,623.915,2769.17,2767.01,0.799872,0.00140014
1461.0,0.812562,624.08,2773.4,2771.25,0.800599,0.00212826
1464.0,0.79933,624.245,2777.63,2775.48,0.799945,0.00147539
1467.0,0.798329,624.409,2781.86,2779.7,0.799384,0.000915531
1470.0,0.797539,624.574,2786.09,2783.93,0.799528,0.00106067
1473.0,0.799865,624.739,2790.31,2788.15,0.799948,0.00148181
1476.0,0.799677,624.904,2794.53,2792.37,0.799948,0.00148296
1479.0,0.80159,625.069,2798.75,2796.59,0.80159,0.00312612
1482.0,0.799293,625.234,2802.97,2800.8,0.799662,0.0011993
1485.0,0.800211,625.399,2807.19,2805.02,0.800211,0.00174948
1488.0,0.797551,625.563,2811.4,2809.23,0.800452,0.00199167
1491.0,0.800154,625.728,2815.61,2813.44,0.802109,0.00364988
1494.0,0.798625,625.893,2819.82,2817.65,0.800189,0.00173109
1497.0,0.798585,626.058,2824.03,2821.85,0.800189,0.00173232
1500.0,0.797331,626.223,2828.23,2826.05,0.799532,0.00107655
1503.0,0.800304,626.388,2832.44,2830.25,0.798883,0.00042879
1506.0,0.800269,626.552,2836.64,2834.45,0.800269,0.00181604
1509.0,0.797586,626.717,2840.83,2838.65,0.799986,0.00153429
1512.0,0.800224,626.882,2845.03,2842.84,0.799986,0.00153554
1515.0,0.813692,627.047,2849.22,2847.03,0.800659,0.00220981
1518.0,0.797955,627.212,2853.41,2851.22,0.798857,0.000409093
1521.0,0.800364,627.377,2857.6,2855.41,0.800098,0.00165138
1524.0,0.800316,627.541,2861.79,2859.59,0.800098,0.00165267
1527.0,0.800013,627.706,2865.97,2863.78,0.799956,0.00151198
1530.0,0.800313,627.871,2870.16,2867.96,0.800313,0.0018703
1533.0,0.801066,628.036,2874.34,2872.14,0.800095,0.00165363
1536.0,0.799122,628.201,2878.52,2876.31,0.799122,0.000681976
1539.0,0.800938,628.366,2882.69,2880.49,0.799729,0.00129033
1542.0,0.798355,628.53,2886.87,2884.66,0.801544,0.00310669
1545.0,0.807107,628.695,2891.04,2888.83,0.801544,0.00310805
1548.0,0.800116,628.86,2895.21,2892.99,0.799562,0.00112743
1551.0,0.799917,629.025,2899.37,2897.16,0.799562,0.00112881
1554.0,0.79918,629.19,2903.54,2901.32,0.79951,0.00107821
1557.0,0.799496,629.355,2907.7,2905.48,0.799496,0.00106561
1560.0,0.799154,629.52,2911.86,2909.64,0.799154,0.000725005
1563.0,0.798332,629.684,2916.02,2913.8,0.798974,0.000546409
1566.0,0.798372,629.849,2920.18,2917.95,0.798372,-5.41876e-05
1569.0,0.796111,630.014,2924.33,2922.1,0.798314,-0.000110784
1572.0,0.798622,630.179,2928.48,2926.25,0.8025,0.00407661
1575.0,0.800131,630.344,2932.63,2930.4,0.800131,0.00170901
1578.0,0.798143,630.509,2936.78,2934.55,0.799593,0.00117241
1581.0,0.799995,630.673,2940.93,2938.69,0.799995,0.00157582
1584.0,0.800019,630.838,2945.07,2942.83,0.800019,0.00160125
1587.0,0.800443,631.003,2949.21,2946.97,0.800587,0.00217069
1590.0,0.798515,631.168,2953.35,2951.11,0.799476,0.00106114
1593.0,0.799199,631.333,2957.49,2955.24,0.799199,0.0007856
1596.0,0.812495,631.498,2961.62,2959.38,0.802597,0.00418507
1599.0,0.797973,631.662,2965.75,2963.51,0.799535,0.00112454
1602.0,0.799966,631.827,2969.88,2967.64,0.799535,0.001126
1605.0,0.801072,631.992,2974.01,2971.76,0.799487,0.00107948
1608.0,0.797429,632.157,2978.14,2975.89,0.799404,0.000997973
1611.0,0.796356,632.322,2982.26,2980.01,0.797931,-0.000473532
1614.0,0.799451,632.487,2986.38,2984.13,0.799383,0.000979957
1617.0,0.797375,632.651,2990.5,2988.24,0.799383,0.000981448
1620.0,0.798303,632.816,2994.62,2992.36,0.798358,-4.20649e-05
1623.0,0.797426,632.981,2998.73,2996.47,0.799104,0.000705425
1626.0,0.801536,633.146,3002.85,3000.58,0.800429,0.00203191
1629.0,0.798318,633.311,3006.96,3004.69,0.799549,0.00115342
1632.0,0.800233,633.476,3011.07,3008.8,0.800233,0.00183893
1635.0,0.797559,633.641,3015.17,3012.91,0.79865,0.000257467
1638.0,0.798482,633.805,3019.28,3017.01,0.798482,9.10059e-05
1641.0,0.799166,633.97,3023.38,3021.11,0.798363,-2.64586e-05
1644.0,0.799948,634.135,3027.48,3025.21,0.798363,-2.49197e-05
1647.0,0.79902,634.3,3031.58,3029.3,0.798025,-0.000361376
1650.0,0.798784,634.465,3035.68,3033.4,0.799358,0.000973168
1653.0,0.799838,634.63,3039.77,3037.49,0.799717,0.00133372
1656.0,0.799574,634.794,3043.86,3041.58,0.799574,0.00119227
1659.0,0.798705,634.959,3047.95,3045.67,0.798705,0.000324842
1662.0,0.800156,635.124,3052.04,3049.75,0.799526,0.00114742
1665.0,0.799237,635.289,3056.12,3053.84,0.799237,0.000859996
1668.0,0.799025,635.454,3060.21,3057.92,0.799025,0.000649576
1671.0,0.798228,635.619,3064.29,3062,0.799364,0.000990162
1674.0,0.804766,635.783,3068.37,3066.07,0.799406,0.00103375
1677.0,0.795953,635.948,3072.44,3070.15,0.798126,-0.000244649
1680.0,0.799051,636.113,3076.52,3074.22,0.797874,-0.000495059
1683.0,0.797987,636.278,3080.59,3078.29,0.797611,-0.000756472
1686.0,0.797527,636.443,3084.66,3082.36,0.79728,-0.00108589
1689.0,0.797203,636.608,3088.73,3086.43,0.79728,-0.00108432
1692.0,0.797636,636.772,3092.8,3090.49,0.797636,-0.000726751
1695.0,0.798108,636.937,3096.86,3094.55,0.798108,-0.000253188
1698.0,0.800466,637.102,3100.92,3098.61,0.800466,0.00210637
1701.0,0.797777,637.267,3104.98,3102.67,0.800065,0.00170693
1704.0,0.795853,637.432,3109.04,3106.73,0.799034,0.000677498
1707.0,0.799599,637.597,3113.1,3110.78,0.799357,0.00100206
1710.0,0.798678,637.762,3117.15,3114.83,0.798961,0.000607627
1713.0,0.79549,637.926,3121.2,3118.88,0.798425,7.31978e-05
1716.0,0.798149,638.091,3125.25,3122.93,0.797776,-0.000574239
1719.0,0.798811,638.256,3129.3,3126.98,0.797776,-0.000572678
1722.0,0.801419,638.421,3133.34,3131.02,0.797628,-0.000719118
1725.0,0.798893,638.586,3137.39,3135.06,0.796934,-0.00141155
1728.0,0.79856,638.751,3141.43,3139.1,0.798342,-1.99526e-06
1731.0,0.797243,638.915,3145.47,3143.14,0.798423,8.05591e-05
1734.0,0.79638,639.08,3149.51,3147.17,0.798468,0.000127113
1737.0,0.800687,639.245,3153.54,3151.21,0.798793,0.000453663
1740.0,0.799828,639.41,3157.57,3155.24,0.798034,-0.000303785
1743.0,0.796634,639.575,3161.6,3159.27,0.797324,-0.00101224
1746.0,0.797321,639.74,3165.63,3163.29,0.797324,-0.0010107
1749.0,0.800412,639.904,3169.66,3167.32,0.799155,0.00082183
1752.0,0.798821,640.069,3173.68,3171.34,0.797406,-0.00092563
1755.0,0.796324,640.234,3177.71,3175.36,0.79731,-0.00102009
1758.0,0.797784,640.399,3181.73,3179.38,0.797784,-0.000544568
1761.0,0.796208,640.564,3185.75,3183.4,0.796368,-0.00195905
1764.0,0.79705,640.729,3189.76,3187.41,0.79705,-0.00127554
1767.0,0.797237,640.893,3193.78,3191.42,0.798666,0.000341964
1770.0,0.795491,641.058,3197.79,3195.43,0.797743,-0.000579535
1773.0,0.798958,641.223,3201.8,3199.44,0.797313,-0.00100805
1776.0,0.797609,641.388,3205.81,3203.45,0.797313,-0.00100657
1779.0,0.794918,641.553,3209.81,3207.45,0.797053,-0.00126509
1782.0,0.798181,641.718,3213.82,3211.45,0.798155,-0.000161635
1785.0,0.796878,641.883,3217.82,3215.45,0.797942,-0.000373181
1788.0,0.797758,642.047,3221.82,3219.45,0.797234,-0.00107974
1791.0,0.795971,642.212,3225.82,3223.45,0.796025,-0.0022873
1794.0,0.796934,642.377,3229.81,3227.44,0.796885,-0.00142589
1797.0,0.796358,642.542,3233.81,3231.43,0.796493,-0.00181648
1800.0,0.796649,642.707,3237.8,3235.42,0.796649,-0.00165909
1803.0,0.797604,642.872,3241.79,3239.41,0.797604,-0.000702717
1806.0,0.801213,643.036,3245.77,3243.4,0.797762,-0.000543345
1809.0,0.808391,643.201,3249.76,3247.38,0.797654,-0.000649967
1812.0,0.795955,643.366,3253.74,3251.36,0.796084,-0.0022186
1815.0,0.79753,643.531,3257.72,3255.34,0.799266,0.000964762
1818.0,0.79488,643.696,3261.7,3259.32,0.797359,-0.000940881
1821.0,0.796667,643.861,3265.68,3263.29,0.797229,-0.00106954
1824.0,0.796921,644.025,3269.66,3267.27,0.797752,-0.000545199
1827.0,0.79517,644.19,3273.63,3271.24,0.797752,-0.000543873
1830.0,0.799715,644.355,3277.6,3275.21,0.797285,-0.00100956
1833.0,0.795992,644.52,3281.57,3279.18,0.795992,-0.00230125
1836.0,0.79539,644.685,3285.54,3283.14,0.795691,-0.00260096
1839.0,0.797579,644.85,3289.5,3287.1,0.796938,-0.00135269
1842.0,0.795943,645.015,3293.47,3291.07,0.796698,-0.00159143
1845.0,0.796092,645.179,3297.43,3295.02,0.797221,-0.00106719
1848.0,0.800407,645.344,3301.39,3298.98,0.798119,-0.000167965
1851.0,0.796347,645.509,3305.34,3302.94,0.796245,-0.00204074
1854.0,0.80058,645.674,3309.3,3306.89,0.796234,-0.00205053
1857.0,0.794417,645.839,3313.25,3310.84,0.795966,-0.00231732
1860.0,0.797038,646.004,3317.2,3314.79,0.797038,-0.00124415
1863.0,0.796592,646.168,3321.15,3318.74,0.797379,-0.000901978
1866.0,0.795616,646.333,3325.1,3322.68,0.79659,-0.00168982
1869.0,0.794907,646.498,3329.04,3326.63,0.79659,-0.00168868
1872.0,0.797731,646.663,3332.98,3330.57,0.796974,-0.00130356
1875.0,0.799087,646.828,3336.93,3334.51,0.795621,-0.00265545
1878.0,0.798356,646.993,3340.86,3338.44,0.796159,-0.00211635
1881.0,0.796211,647.157,3344.8,3342.38,0.796211,-0.00206327
1884.0,0.793626,647.322,3348.74,3346.31,0.795678,-0.00259519
1887.0,0.798681,647.487,3352.67,3350.24,0.796979,-0.00129314
1890.0,0.796461,647.652,3356.6,3354.17,0.796979,-0.0012921
1893.0,0.795484,647.817,3360.53,3358.1,0.79575,-0.00252008
1896.0,0.79947,647.982,3364.46,3362.02,0.79647,-0.00179908
1899.0,0.79514,648.146,3368.38,3365.95,0.79647,-0.00179808
1902.0,0.794481,648.311,3372.3,3369.87,0.795681,-0.0025861
1905.0,0.796154,648.476,3376.22,3373.79,0.796074,-0.00219214
1908.0,0.795919,648.641,3380.14,3377.7,0.796017,-0.0022482
1911.0,0.796097,648.806,3384.06,3381.62,0.796097,-0.00216729
1914.0,0.793421,648.971,3387.98,3385.53,0.796104,-0.00215939
1917.0,0.795641,649.136,3391.89,3389.44,0.796255,-0.00200751
1920.0,0.796205,649.3,3395.8,3393.35,0.79634,-0.00192165
1923.0,0.794498,649.465,3399.71,3397.26,0.796504,-0.00175681
1926.0,0.794092,649.63,3403.62,3401.16,0.795866,-0.00239399
1929.0,0.797389,649.795,3407.52,3405.07,0.795866,-0.0023932
1932.0,0.800713,649.96,3411.42,3408.97,0.796287,-0.00197143
1935.0,0.796296,650.125,3415.32,3412.87,0.795807,-0.00245066
1938.0,0.799315,650.289,3419.22,3416.76,0.794612,-0.00364491
1941.0,0.79617,650.454,3423.12,3420.66,0.794612,-0.00364418
1944.0,0.799959,650.619,3427.02,3424.55,0.79564,-0.00261548
1947.0,0.793989,650.784,3430.91,3428.44,0.795916,-0.00233879
1950.0,0.794707,650.949,3434.8,3432.33,0.796877,-0.00137713
1953.0,0.796751,651.114,3438.69,3436.22,0.797103,-0.00115049
1956.0,0.795402,651.278,3442.58,3440.11,0.797103,-0.00114986
1959.0,0.793902,651.443,3446.46,3443.99,0.796055,-0.00219724
1962.0,0.793836,651.608,3450.34,3447.87,0.794256,-0.00399564
1965.0,0.795789,651.773,3454.23,3451.75,0.795146,-0.00310508
1968.0,0.801569,651.938,3458.11,3455.63,0.796178,-0.00207254
1971.0,0.79454,652.103,3461.98,3459.5,0.796178,-0.00207201
1974.0,0.795588,652.267,3465.86,3463.38,0.795588,-0.0026615
1977.0,0.795065,652.432,3469.73,3467.25,0.795324,-0.00292502
1980.0,0.796907,652.597,3473.6,3471.12,0.795324,-0.00292456
1983.0,0.796503,652.762,3477.47,3474.99,0.794586,-0.00366212
1986.0,0.795285,652.927,3481.34,3478.85,0.795285,-0.00296271
1989.0,0.795906,653.092,3485.21,3482.72,0.796344,-0.00190333
1992.0,0.796415,653.257,3489.07,3486.58,0.79818,-6.69625e-05
1995.0,0.797048,653.421,3492.93,3490.44,0.79818,-6.65967e-05
1998.0,0.796069,653.586,3496.79,3494.3,0.796069,-0.00217724
2001.0,0.796978,653.751,3500.65,3498.15,0.795159,-0.00308689
2004.0,0.796194,653.916,3504.51,3502.01,0.796194,-0.00205157
2007.0,0.794705,654.081,3508.36,3505.86,0.797073,-0.00117227
2010.0,0.795279,654.246,3512.21,3509.71,0.796453,-0.00179198
2013.0,0.797173,654.41,3516.06,3513.56,0.796376,-0.00186871
2016.0,0.79464,654.575,3519.91,3517.4,0.795163,-0.00308145
2019.0,0.796699,654.74,3523.76,3521.25,0.795189,-0.00305522
2022.0,0.794871,654.905,3527.6,3525.09,0.794871,-0.00337301
2025.0,0.796165,655.07,3531.44,3528.93,0.796165,-0.00207883
2028.0,0.794504,655.235,3535.28,3532.77,0.795117,-0.00312666
2031.0,0.795128,655.399,3539.12,3536.61,0.795117,-0.00312652
2034.0,0.796889,655.564,3542.96,3540.44,0.796418,-0.00182541
2037.0,0.793847,655.729,3546.79,3544.27,0.794258,-0.00398532
2040.0,0.797255,655.894,3550.63,3548.1,0.795709,-0.00253426
2043.0,0.798593,656.059,3554.46,3551.93,0.795742,-0.00250122
2046.0,0.795615,656.224,3558.28,3555.76,0.795615,-0.0026282
2047.0,0.797363,656.279,3559.56,3557.04,0.795615,-0.0026282