File: data/processed/processed_data/2024-10-11/2024-10-11_1Mmagnesiumsulfateheptahydratesolution_n_n_n_solid_10000_0_5.csv
Pixels #,Intensity (a.u.),Wavelength (nm),Raman shift (cm-1),Raman shift (cm-1) adjusted,Filtered Intensity (a.u.),Baselined Filtered Intensity (a.u.)
0.0,0.787214,543.803,407.968,406.929,0.786672,-0.00496408
3.0,0.785621,543.967,413.541,412.499,0.786676,-0.0049601
6.0,0.787044,544.132,419.11,418.065,0.787355,-0.00428117
9.0,0.788778,544.297,424.676,423.628,0.788052,-0.00358427
12.0,0.792362,544.462,430.238,429.188,0.786694,-0.0049424
15.0,0.790046,544.627,435.797,434.744,0.786871,-0.00476556
18.0,0.789329,544.792,441.353,440.297,0.786871,-0.00476576
21.0,0.787553,544.957,446.905,445.847,0.785578,-0.00605899
24.0,0.785042,545.121,452.454,451.393,0.785615,-0.00602227
27.0,0.787429,545.286,457.999,456.936,0.785831,-0.00580661
30.0,0.786448,545.451,463.542,462.476,0.787063,-0.00457499
33.0,0.787263,545.616,469.08,468.012,0.788889,-0.0027494
36.0,0.786408,545.781,474.616,473.545,0.787585,-0.00405384
39.0,0.817653,545.946,480.148,479.075,0.788412,-0.00322732
42.0,0.784876,546.11,485.677,484.601,0.786882,-0.00475781
45.0,0.787846,546.275,491.202,490.124,0.786882,-0.00475836
48.0,0.79033,546.44,496.725,495.643,0.789004,-0.00263694
51.0,0.788345,546.605,502.243,501.16,0.788992,-0.00264955
54.0,0.799947,546.77,507.759,506.672,0.790311,-0.00133118
57.0,0.788517,546.935,513.271,512.182,0.788517,-0.00312583
60.0,0.790285,547.099,518.78,517.688,0.788056,-0.0035875
63.0,0.786384,547.264,524.285,523.191,0.78825,-0.00339419
66.0,0.788395,547.429,529.788,528.691,0.789776,-0.00186892
69.0,0.788222,547.594,535.287,534.187,0.789776,-0.00186967
72.0,0.788752,547.759,540.782,539.68,0.788752,-0.00289444
75.0,0.787885,547.924,546.275,545.17,0.788092,-0.00355524
78.0,0.789779,548.088,551.763,550.656,0.788457,-0.00319106
81.0,0.790838,548.253,557.249,556.139,0.789459,-0.00218991
84.0,0.788842,548.418,562.732,561.619,0.788842,-0.00280777
87.0,0.789035,548.583,568.211,567.096,0.789035,-0.00261566
90.0,0.790642,548.748,573.686,572.569,0.790535,-0.00111656
93.0,0.787796,548.913,579.159,578.039,0.789336,-0.00231647
96.0,0.789101,549.078,584.628,583.506,0.789101,-0.0025524
99.0,0.79014,549.242,590.094,588.969,0.789485,-0.00216936
102.0,0.790887,549.407,595.557,594.429,0.790621,-0.00103434
105.0,0.790441,549.572,601.016,599.886,0.790441,-0.00121533
108.0,0.790504,549.737,606.472,605.339,0.790192,-0.00146532
111.0,0.788556,549.902,611.925,610.79,0.788754,-0.00290432
114.0,0.788775,550.067,617.375,616.237,0.789253,-0.00240634
117.0,0.788563,550.231,622.821,621.68,0.789717,-0.00194338
120.0,0.788377,550.396,628.264,627.121,0.789717,-0.00194444
123.0,0.788502,550.561,633.704,632.558,0.790381,-0.0012815
126.0,0.788349,550.726,639.14,637.992,0.790381,-0.00128259
129.0,0.789316,550.891,644.574,643.423,0.790061,-0.00160368
132.0,0.793339,551.056,650.004,648.85,0.790882,-0.000783794
135.0,0.788736,551.22,655.431,654.274,0.788952,-0.00271491
138.0,0.788033,551.385,660.854,659.695,0.789221,-0.00244705
141.0,0.788493,551.55,666.274,665.113,0.791552,-0.000117208
144.0,0.791307,551.715,671.691,670.528,0.791552,-0.000118374
147.0,0.789776,551.88,677.105,675.939,0.789895,-0.00177655
150.0,0.790481,552.045,682.516,681.347,0.790481,-0.00119173
153.0,0.789773,552.209,687.923,686.752,0.790261,-0.00141292
156.0,0.791017,552.374,693.327,692.153,0.791017,-0.000658119
159.0,0.801212,552.539,698.728,697.552,0.791389,-0.000287327
162.0,0.790872,552.704,704.126,702.947,0.791389,-0.000288541
165.0,0.789322,552.869,709.52,708.339,0.790165,-0.00151376
168.0,0.789857,553.034,714.912,713.727,0.791048,-0.000631992
171.0,0.789436,553.199,720.3,719.113,0.791082,-0.000599235
174.0,0.791414,553.363,725.684,724.495,0.791414,-0.000268485
177.0,0.788683,553.528,731.066,729.874,0.79004,-0.00164373
180.0,0.792856,553.693,736.444,735.25,0.792856,0.001171
183.0,0.792775,553.858,741.82,740.623,0.793312,0.00162573
186.0,0.794035,554.023,747.192,745.992,0.793949,0.00226148
189.0,0.792697,554.188,752.561,751.359,0.792697,0.00100824
192.0,0.795284,554.352,757.926,756.722,0.792563,0.000873006
195.0,0.793529,554.517,763.289,762.082,0.793529,0.00183778
198.0,0.793209,554.682,768.648,767.438,0.793209,0.00151656
201.0,0.79233,554.847,774.004,772.792,0.793279,0.00158535
204.0,0.79452,555.012,779.357,778.142,0.79452,0.00282515
207.0,0.793759,555.177,784.706,783.489,0.794208,0.00251195
210.0,0.793295,555.341,790.053,788.833,0.794208,0.00251076
213.0,0.796699,555.506,795.396,794.174,0.796699,0.00500059
216.0,0.797676,555.671,800.737,799.512,0.797676,0.00597641
219.0,0.794499,555.836,806.074,804.846,0.797438,0.00573724
222.0,0.795975,556.001,811.407,810.178,0.797218,0.00551606
225.0,0.799169,556.166,816.738,815.506,0.797726,0.00602289
228.0,0.797127,556.33,822.066,820.831,0.798503,0.00679871
231.0,0.798106,556.495,827.39,826.153,0.799057,0.00735154
234.0,0.799017,556.66,832.711,831.472,0.799057,0.00735036
237.0,0.797075,556.825,838.029,836.787,0.79867,0.00696219
240.0,0.796676,556.99,843.344,842.1,0.79867,0.00696101
243.0,0.796622,557.155,848.656,847.409,0.798183,0.00647284
246.0,0.799047,557.32,853.965,852.715,0.799047,0.00733566
249.0,0.814029,557.484,859.27,858.018,0.799634,0.00792149
252.0,0.797468,557.649,864.572,863.318,0.797504,0.00579031
255.0,0.796459,557.814,869.872,868.615,0.797504,0.00578914
258.0,0.7958,557.979,875.168,873.908,0.796959,0.00524296
261.0,0.799054,558.144,880.461,879.199,0.797815,0.00609779
264.0,0.795468,558.309,885.751,884.486,0.796212,0.00449361
267.0,0.80195,558.473,891.037,889.77,0.797042,0.00532244
270.0,0.798655,558.638,896.321,895.051,0.798137,0.00641626
273.0,0.805212,558.803,901.601,900.329,0.798137,0.00641509
276.0,0.796925,558.968,906.879,905.604,0.795896,0.00417291
279.0,0.797153,559.133,912.153,910.876,0.795321,0.00359674
282.0,0.798448,559.298,917.424,916.145,0.795782,0.00405656
285.0,0.796663,559.462,922.692,921.41,0.795782,0.00405539
288.0,0.794208,559.627,927.957,926.673,0.795359,0.00363121
291.0,0.797561,559.792,933.219,931.932,0.797561,0.00583204
294.0,0.798067,559.957,938.478,937.188,0.798067,0.00633688
297.0,0.798691,560.122,943.733,942.441,0.799248,0.00751671
300.0,0.798915,560.287,948.986,947.691,0.799248,0.00751554
303.0,0.797795,560.452,954.235,952.938,0.799237,0.00750337
306.0,0.79995,560.616,959.482,958.182,0.79995,0.00821521
309.0,0.806535,560.781,964.725,963.423,0.805125,0.013389
312.0,0.822765,560.946,969.965,968.661,0.837983,0.0462459
315.0,0.85969,561.111,975.202,973.896,0.85969,0.0679517
318.0,0.869718,561.276,980.436,979.127,0.869718,0.0779785
321.0,0.856803,561.441,985.667,984.356,0.856803,0.0650624
324.0,0.829881,561.605,990.895,989.581,0.829881,0.0381392
327.0,0.809989,561.77,996.12,994.803,0.809989,0.018246
330.0,0.802365,561.935,1001.34,1000.02,0.802365,0.0106209
333.0,0.797472,562.1,1006.56,1005.24,0.798691,0.0069457
336.0,0.797321,562.265,1011.78,1010.45,0.797321,0.00557453
339.0,0.798491,562.43,1016.99,1015.66,0.798161,0.00641336
342.0,0.794423,562.594,1022.2,1020.87,0.79542,0.00367119
345.0,0.795695,562.759,1027.4,1026.07,0.795747,0.00399703
348.0,0.793931,562.924,1032.61,1031.27,0.79546,0.00370886
351.0,0.797894,563.089,1037.81,1036.47,0.795936,0.0041837
354.0,0.794744,563.254,1043.01,1041.67,0.794962,0.00320854
357.0,0.796213,563.419,1048.2,1046.86,0.795488,0.00373338
360.0,0.795958,563.583,1053.39,1052.05,0.795958,0.00420223
363.0,0.798411,563.748,1058.58,1057.23,0.796723,0.00496607
366.0,0.798007,563.913,1063.77,1062.42,0.797328,0.00556992
369.0,0.800443,564.078,1068.95,1067.6,0.797328,0.00556876
372.0,0.797299,564.243,1074.13,1072.77,0.797911,0.00615061
375.0,0.796705,564.408,1079.3,1077.95,0.79781,0.00604846
378.0,0.804785,564.573,1084.48,1083.12,0.797468,0.0057053
381.0,0.799428,564.737,1089.65,1088.28,0.797878,0.00611415
384.0,0.797712,564.902,1094.81,1093.45,0.797878,0.00611299
387.0,0.797864,565.067,1099.98,1098.61,0.797864,0.00609784
390.0,0.799105,565.232,1105.14,1103.77,0.798209,0.00644169
393.0,0.796963,565.397,1110.3,1108.93,0.797018,0.00524953
396.0,0.798639,565.562,1115.45,1114.08,0.796379,0.00460938
399.0,0.799242,565.726,1120.6,1119.23,0.79783,0.00605922
402.0,0.797778,565.891,1125.75,1124.37,0.79783,0.00605807
405.0,0.809546,566.056,1130.9,1129.52,0.797257,0.00548392
408.0,0.79897,566.221,1136.04,1134.66,0.796704,0.00492976
411.0,0.795893,566.386,1141.18,1139.8,0.795936,0.00416061
414.0,0.794917,566.551,1146.32,1144.93,0.795416,0.00363945
417.0,0.797908,566.715,1151.45,1150.06,0.795416,0.0036383
420.0,0.795603,566.88,1156.58,1155.19,0.795943,0.00416415
423.0,0.79532,567.045,1161.71,1160.32,0.79532,0.00354001
426.0,0.797341,567.21,1166.84,1165.44,0.795684,0.00390286
429.0,0.794469,567.375,1171.96,1170.56,0.795617,0.00383472
432.0,0.798172,567.54,1177.08,1175.68,0.798172,0.00638858
435.0,0.796436,567.704,1182.19,1180.79,0.796436,0.00465144
438.0,0.792777,567.869,1187.31,1185.9,0.795153,0.00336731
441.0,0.796351,568.034,1192.42,1191.01,0.795153,0.00336618
444.0,0.794959,568.199,1197.52,1196.11,0.79367,0.00188205
447.0,0.797231,568.364,1202.63,1201.21,0.79367,0.00188093
450.0,0.795294,568.529,1207.73,1206.31,0.79386,0.00206982
453.0,0.803176,568.694,1212.83,1211.41,0.794739,0.00294772
456.0,0.795703,568.858,1217.92,1216.5,0.795703,0.00391062
459.0,0.797292,569.023,1223.02,1221.59,0.797085,0.00529152
462.0,0.793001,569.188,1228.11,1226.68,0.794623,0.00282842
465.0,0.793325,569.353,1233.19,1231.76,0.793325,0.00152932
468.0,0.794007,569.518,1238.28,1236.85,0.794007,0.00221023
471.0,0.795084,569.683,1243.36,1241.92,0.795084,0.00328615
474.0,0.796099,569.847,1248.43,1247,0.794069,0.00227008
477.0,0.79352,570.012,1253.51,1252.07,0.793684,0.00188401
480.0,0.792522,570.177,1258.58,1257.14,0.794409,0.00260796
483.0,0.796249,570.342,1263.65,1262.21,0.794876,0.00307391
486.0,0.796996,570.507,1268.72,1267.27,0.794882,0.00307887
489.0,0.794809,570.672,1273.78,1272.33,0.793353,0.00154883
492.0,0.793187,570.836,1278.84,1277.39,0.793353,0.0015478
495.0,0.79539,571.001,1283.9,1282.44,0.795523,0.00371677
498.0,0.793239,571.166,1288.95,1287.5,0.793239,0.00143174
501.0,0.796199,571.331,1294,1292.55,0.795614,0.00380572
504.0,0.792291,571.496,1299.05,1297.59,0.793583,0.0017737
507.0,0.792473,571.661,1304.1,1302.63,0.793583,0.00177269
510.0,0.7911,571.825,1309.14,1307.67,0.793586,0.00177468
513.0,0.794105,571.99,1314.18,1312.71,0.794007,0.00219469
516.0,0.792787,572.155,1319.22,1317.75,0.793798,0.0019847
519.0,0.79694,572.32,1324.25,1322.78,0.79694,0.00512573
522.0,0.793264,572.485,1329.28,1327.81,0.795459,0.00364376
525.0,0.796909,572.65,1334.31,1332.83,0.795282,0.0034658
528.0,0.794327,572.815,1339.33,1337.86,0.794566,0.00274884
531.0,0.789639,572.979,1344.36,1342.88,0.792688,0.000869896
534.0,0.79344,573.144,1349.38,1347.89,0.793772,0.00195294
537.0,0.796383,573.309,1354.39,1352.91,0.793772,0.001952
540.0,0.793127,573.474,1359.41,1357.92,0.79273,0.00090906
543.0,0.792802,573.639,1364.42,1362.93,0.794447,0.00262513
546.0,0.794092,573.804,1369.43,1367.93,0.794092,0.0022692
549.0,0.793046,573.968,1374.43,1372.94,0.793046,0.00122229
552.0,0.79861,574.133,1379.43,1377.94,0.794343,0.00251838
555.0,0.791879,574.298,1384.43,1382.93,0.792958,0.00113248
558.0,0.792439,574.463,1389.43,1387.93,0.794043,0.00221658
561.0,0.794088,574.628,1394.42,1392.92,0.794043,0.00221569
564.0,0.79254,574.793,1399.41,1397.91,0.793168,0.00133982
567.0,0.795228,574.957,1404.4,1402.89,0.793544,0.00171495
570.0,0.794023,575.122,1409.39,1407.87,0.793283,0.0014531
573.0,0.806076,575.287,1414.37,1412.85,0.792394,0.000563255
576.0,0.795823,575.452,1419.35,1417.83,0.793744,0.00191242
579.0,0.798282,575.617,1424.32,1422.81,0.794265,0.00243258
582.0,0.793835,575.782,1429.3,1427.78,0.793835,0.00200176
585.0,0.810228,575.946,1434.27,1432.74,0.794251,0.00241694
588.0,0.795691,576.111,1439.24,1437.71,0.793414,0.00157913
591.0,0.79261,576.276,1444.2,1442.67,0.79261,0.000774323
594.0,0.794794,576.441,1449.16,1447.63,0.794794,0.00295752
597.0,0.793983,576.606,1454.12,1452.59,0.793983,0.00214572
600.0,0.799264,576.771,1459.08,1457.54,0.794131,0.00229293
603.0,0.792488,576.936,1464.03,1462.5,0.793921,0.00208214
606.0,0.802659,577.1,1468.98,1467.44,0.795054,0.00321437
609.0,0.794138,577.265,1473.93,1472.39,0.794324,0.00248359
612.0,0.794864,577.43,1478.88,1477.33,0.794864,0.00302282
615.0,0.792921,577.595,1483.82,1482.27,0.792751,0.000909059
618.0,0.795857,577.76,1488.76,1487.21,0.793208,0.0013653
621.0,0.795982,577.925,1493.7,1492.14,0.796178,0.00433455
624.0,0.797113,578.089,1498.63,1497.08,0.796178,0.0043338
627.0,0.792093,578.254,1503.56,1502.01,0.793417,0.00157205
630.0,0.824115,578.419,1508.49,1506.93,0.794419,0.00257332
633.0,0.792182,578.584,1513.41,1511.85,0.793654,0.00180759
636.0,0.794176,578.749,1518.34,1516.77,0.793671,0.00182387
639.0,0.793603,578.914,1523.26,1521.69,0.793671,0.00182317
642.0,0.793878,579.078,1528.17,1526.61,0.793878,0.00202949
645.0,0.794484,579.243,1533.09,1531.52,0.794484,0.00263481
648.0,0.792634,579.408,1538,1536.43,0.792679,0.000829132
651.0,0.793989,579.573,1542.91,1541.33,0.793989,0.00213846
654.0,0.794681,579.738,1547.82,1546.24,0.794681,0.00282981
657.0,0.797145,579.903,1552.72,1551.14,0.796219,0.00436716
660.0,0.794826,580.067,1557.62,1556.04,0.795045,0.00319252
663.0,0.79572,580.232,1562.52,1560.93,0.795136,0.00328288
666.0,0.804194,580.397,1567.41,1565.83,0.794725,0.00287124
669.0,0.796331,580.562,1572.3,1570.72,0.795485,0.00363061
672.0,0.871535,580.727,1577.19,1575.6,0.795138,0.00328298
675.0,0.795192,580.892,1582.08,1580.49,0.794291,0.00243536
678.0,0.794198,581.057,1586.96,1585.37,0.794291,0.00243474
681.0,0.794849,581.221,1591.84,1590.25,0.796121,0.00426414
684.0,0.794625,581.386,1596.72,1595.12,0.796121,0.00426353
687.0,0.79664,581.551,1601.6,1600,0.795539,0.00368093
690.0,0.795706,581.716,1606.47,1604.87,0.795539,0.00368034
693.0,0.793793,581.881,1611.34,1609.73,0.795492,0.00363274
696.0,0.795384,582.046,1616.21,1614.6,0.795687,0.00382716
699.0,0.7955,582.21,1621.07,1619.46,0.799626,0.00776557
702.0,0.802435,582.375,1625.93,1624.32,0.79587,0.00400898
705.0,0.796532,582.54,1630.79,1629.18,0.796532,0.00467039
708.0,0.80027,582.705,1635.65,1634.03,0.797684,0.0058218
711.0,0.798737,582.87,1640.5,1638.88,0.797352,0.00548922
714.0,0.797227,583.035,1645.35,1643.73,0.798087,0.00622363
717.0,0.79595,583.199,1650.2,1648.57,0.798087,0.00622304
720.0,0.799325,583.364,1655.04,1653.42,0.798227,0.00636245
723.0,0.795416,583.529,1659.89,1658.26,0.795955,0.00408987
726.0,0.797816,583.694,1664.73,1663.1,0.797816,0.00595028
729.0,0.796881,583.859,1669.56,1667.93,0.796163,0.00429669
732.0,0.796465,584.024,1674.4,1672.76,0.795774,0.0039071
735.0,0.795821,584.188,1679.23,1677.59,0.795821,0.00395351
738.0,0.796647,584.353,1684.06,1682.42,0.796885,0.00501693
741.0,0.795877,584.518,1688.88,1687.24,0.796712,0.00484334
744.0,0.794734,584.683,1693.71,1692.06,0.794734,0.00286475
747.0,0.797871,584.848,1698.53,1696.88,0.797871,0.00600116
750.0,0.79399,585.013,1703.35,1701.7,0.79423,0.00235959
753.0,0.795935,585.178,1708.16,1706.51,0.795935,0.00406403
756.0,0.795515,585.342,1712.97,1711.32,0.795515,0.00364347
759.0,0.79298,585.507,1717.78,1716.13,0.794414,0.00254192
762.0,0.794931,585.672,1722.59,1720.93,0.79396,0.00208737
765.0,0.792829,585.837,1727.39,1725.73,0.792829,0.000955832
768.0,0.794106,586.002,1732.2,1730.53,0.794106,0.0022323
771.0,0.794911,586.167,1737,1735.33,0.79446,0.00258578
774.0,0.797263,586.331,1741.79,1740.12,0.794153,0.00227828
777.0,0.793717,586.496,1746.58,1744.91,0.793717,0.00184178
780.0,0.792323,586.661,1751.38,1749.7,0.792584,0.000708294
783.0,0.846934,586.826,1756.16,1754.49,0.792909,0.00103281
786.0,0.796323,586.991,1760.95,1759.27,0.792388,0.000511332
789.0,0.796061,587.156,1765.73,1764.05,0.793639,0.00176185
792.0,0.794615,587.32,1770.51,1768.83,0.793639,0.00176138
795.0,0.795687,587.485,1775.29,1773.61,0.791803,-7.50916e-05
798.0,0.804822,587.65,1780.06,1778.38,0.793913,0.00203443
801.0,0.792778,587.815,1784.84,1783.15,0.792778,0.000898964
804.0,0.792948,587.98,1789.61,1787.91,0.792023,0.000143501
807.0,0.792078,588.145,1794.37,1792.68,0.791306,-0.000573956
810.0,0.791471,588.309,1799.14,1797.44,0.791471,-0.000409418
813.0,0.79226,588.474,1803.9,1802.2,0.792459,0.000578113
816.0,0.792686,588.639,1808.66,1806.96,0.792459,0.000577646
819.0,0.79174,588.804,1813.41,1811.71,0.79174,-0.000141819
822.0,0.791094,588.969,1818.17,1816.46,0.791648,-0.000234285
825.0,0.793206,589.134,1822.92,1821.21,0.792726,0.000843252
828.0,0.794602,589.299,1827.66,1825.96,0.792522,0.000638796
831.0,0.792687,589.463,1832.41,1830.7,0.792522,0.000638345
834.0,0.791468,589.628,1837.15,1835.44,0.79237,0.000485894
837.0,0.791064,589.793,1841.89,1840.18,0.79237,0.000485441
840.0,0.791136,589.958,1846.63,1844.91,0.791136,-0.00074901
843.0,0.793855,590.123,1851.36,1849.65,0.792904,0.00101854
846.0,0.796158,590.288,1856.1,1854.37,0.798534,0.00664809
849.0,0.790483,590.452,1860.83,1859.1,0.79373,0.00184365
852.0,0.791627,590.617,1865.55,1863.83,0.793359,0.0014722
855.0,0.792911,590.782,1870.28,1868.55,0.793359,0.00147176
858.0,0.792039,590.947,1875,1873.27,0.792039,0.00015132
861.0,0.793262,591.112,1879.72,1877.98,0.793262,0.00137388
864.0,0.791057,591.277,1884.43,1882.7,0.794568,0.00267946
867.0,0.807156,591.441,1889.15,1887.41,0.794568,0.00267903
870.0,0.794493,591.606,1893.86,1892.12,0.79363,0.00174061
873.0,0.797237,591.771,1898.57,1896.83,0.79213,0.000240202
876.0,0.793062,591.936,1903.27,1901.53,0.792219,0.000328794
879.0,0.792436,592.101,1907.98,1906.23,0.792436,0.000545388
882.0,0.792551,592.266,1912.68,1910.93,0.793827,0.00193599
885.0,0.789912,592.43,1917.38,1915.62,0.793047,0.0011556
888.0,0.795202,592.595,1922.07,1920.32,0.793071,0.0011792
891.0,0.792282,592.76,1926.76,1925.01,0.791754,-0.000138185
894.0,0.791695,592.925,1931.45,1929.7,0.791754,-0.000138575
897.0,0.793237,593.09,1936.14,1934.38,0.792621,0.000728035
900.0,0.793843,593.255,1940.83,1939.06,0.791717,-0.000176347
903.0,0.791523,593.42,1945.51,1943.74,0.791662,-0.000231725
906.0,0.796627,593.584,1950.19,1948.42,0.795709,0.0038149
909.0,0.793459,593.749,1954.86,1953.1,0.793718,0.00182352
912.0,0.792874,593.914,1959.54,1957.77,0.792874,0.000979144
915.0,0.792793,594.079,1964.21,1962.44,0.791726,-0.000169221
918.0,0.793296,594.244,1968.88,1967.11,0.791726,-0.000169587
921.0,0.793627,594.409,1973.55,1971.77,0.792944,0.00104805
924.0,0.792068,594.573,1978.21,1976.43,0.792944,0.0010477
927.0,0.794091,594.738,1982.87,1981.09,0.794091,0.00219436
930.0,0.790302,594.903,1987.53,1985.75,0.792911,0.00101403
933.0,0.794286,595.068,1992.19,1990.4,0.794286,0.0023887
936.0,0.789926,595.233,1996.84,1995.05,0.792947,0.00104939
939.0,0.795614,595.398,2001.49,1999.7,0.794162,0.00226407
942.0,0.79099,595.562,2006.14,2004.35,0.792503,0.000604756
945.0,0.792875,595.727,2010.79,2008.99,0.792503,0.000604444
948.0,0.793286,595.892,2015.43,2013.63,0.793286,0.00138714
951.0,0.794188,596.057,2020.07,2018.27,0.796023,0.00412384
954.0,0.792605,596.222,2024.71,2022.91,0.794015,0.00211554
957.0,0.792619,596.387,2029.35,2027.54,0.792619,0.000719251
960.0,0.791772,596.551,2033.98,2032.17,0.791772,-0.000128039
963.0,0.792331,596.716,2038.61,2036.8,0.795423,0.00352267
966.0,0.791608,596.881,2043.24,2041.43,0.791613,-0.000287622
969.0,0.796226,597.046,2047.86,2046.05,0.792388,0.000487085
972.0,0.794986,597.211,2052.49,2050.67,0.794986,0.00308479
975.0,0.797847,597.376,2057.11,2055.29,0.793994,0.0020925
978.0,0.793661,597.541,2061.73,2059.91,0.793284,0.00138222
981.0,0.78984,597.705,2066.34,2064.52,0.793012,0.00110994
984.0,0.794567,597.87,2070.95,2069.13,0.794567,0.00266466
987.0,0.79459,598.035,2075.56,2073.74,0.79459,0.00268739
990.0,0.793419,598.2,2080.17,2078.34,0.792609,0.000706118
993.0,0.792099,598.365,2084.78,2082.95,0.792099,0.000195852
996.0,0.799172,598.53,2089.38,2087.55,0.792834,0.000930586
999.0,0.799224,598.694,2093.98,2092.15,0.793346,0.00144232
1002.0,0.793456,598.859,2098.58,2096.74,0.792732,0.000828065
1005.0,0.791848,599.024,2103.17,2101.33,0.791936,3.18157e-05
1008.0,0.796517,599.189,2107.77,2105.93,0.793136,0.00123157
1011.0,0.794173,599.354,2112.36,2110.51,0.793136,0.00123133
1014.0,0.791755,599.519,2116.94,2115.1,0.791755,-0.00014991
1017.0,0.791734,599.683,2121.53,2119.68,0.792005,9.98566e-05
1020.0,0.793745,599.848,2126.11,2124.26,0.795014,0.00310862
1023.0,0.792533,600.013,2130.69,2128.84,0.794408,0.00250239
1026.0,0.791523,600.178,2135.27,2133.41,0.792526,0.000620172
1029.0,0.794227,600.343,2139.84,2137.99,0.793713,0.00180696
1032.0,0.794156,600.508,2144.42,2142.56,0.794156,0.00224976
1035.0,0.790966,600.672,2148.99,2147.13,0.794239,0.00233257
1038.0,0.791202,600.837,2153.55,2151.69,0.79222,0.000313389
1041.0,0.793246,601.002,2158.12,2156.25,0.794259,0.0023522
1044.0,0.803655,601.167,2162.68,2160.81,0.794259,0.00235203
1047.0,0.790132,601.332,2167.24,2165.37,0.791968,6.08497e-05
1050.0,0.79322,601.497,2171.8,2169.93,0.79322,0.00131267
1053.0,0.792596,601.662,2176.35,2174.48,0.792708,0.000800485
1056.0,0.792082,601.826,2180.9,2179.03,0.792659,0.000751309
1059.0,0.792993,601.991,2185.45,2183.58,0.792659,0.000751137
1062.0,0.792566,602.156,2190,2188.12,0.792566,0.000657975
1065.0,0.7917,602.321,2194.55,2192.67,0.792455,0.000546817
1068.0,0.793974,602.486,2199.09,2197.21,0.793101,0.00119266
1071.0,0.794017,602.651,2203.63,2201.74,0.793464,0.00155552
1074.0,0.793924,602.815,2208.17,2206.28,0.793797,0.00188839
1077.0,0.791953,602.98,2212.7,2210.81,0.792717,0.000808276
1080.0,0.793819,603.145,2217.23,2215.34,0.793559,0.00165017
1083.0,0.796763,603.31,2221.76,2219.87,0.796763,0.00485407
1086.0,0.792262,603.475,2226.29,2224.4,0.79672,0.00481097
1089.0,0.794067,603.64,2230.82,2228.92,0.794067,0.00215787
1092.0,0.793339,603.804,2235.34,2233.44,0.79267,0.000760778
1095.0,0.799726,603.969,2239.86,2237.96,0.79267,0.000760684
1098.0,0.795416,604.134,2244.38,2242.47,0.79108,-0.00082941
1101.0,0.797631,604.299,2248.89,2246.99,0.793793,0.00188349
1104.0,0.792353,604.464,2253.41,2251.5,0.793793,0.0018834
1107.0,0.792673,604.629,2257.92,2256,0.792673,0.000763309
1110.0,0.791775,604.794,2262.42,2260.51,0.792959,0.00104922
1113.0,0.795928,604.958,2266.93,2265.01,0.794376,0.00246614
1116.0,0.791652,605.123,2271.43,2269.51,0.79344,0.00153007
1119.0,0.797002,605.288,2275.93,2274.01,0.796215,0.00430499
1122.0,0.795245,605.453,2280.43,2278.51,0.793046,0.00113591
1125.0,0.794145,605.618,2284.93,2283,0.793046,0.00113583
1128.0,0.79363,605.783,2289.42,2287.49,0.79363,0.00171976
1131.0,0.792671,605.947,2293.91,2291.98,0.79255,0.000639695
1134.0,0.79505,606.112,2298.4,2296.47,0.79255,0.000639633
1137.0,0.796565,606.277,2302.88,2300.95,0.794414,0.00250358
1140.0,0.792753,606.442,2307.37,2305.43,0.793684,0.00177353
1143.0,0.791117,606.607,2311.85,2309.91,0.792941,0.00103049
1146.0,0.795081,606.772,2316.33,2314.39,0.794282,0.00237145
1149.0,0.791766,606.936,2320.8,2318.86,0.792222,0.000311412
1152.0,0.793122,607.101,2325.28,2323.33,0.791694,-0.00021662
1155.0,0.798646,607.266,2329.75,2327.8,0.79207,0.000159349
1158.0,0.794561,607.431,2334.22,2332.27,0.792375,0.000464318
1161.0,0.79303,607.596,2338.68,2336.73,0.79303,0.0011193
1164.0,0.792858,607.761,2343.15,2341.19,0.791703,-0.000207721
1167.0,0.799017,607.925,2347.61,2345.65,0.791703,-0.000207738
1170.0,0.790953,608.09,2352.07,2350.11,0.79101,-0.000900759
1173.0,0.796308,608.255,2356.52,2354.57,0.793498,0.00158722
1176.0,0.791441,608.42,2360.98,2359.02,0.793056,0.0011452
1179.0,0.790734,608.585,2365.43,2363.47,0.792535,0.000624187
1182.0,0.790425,608.75,2369.88,2367.91,0.791771,-0.000139824
1185.0,0.790712,608.915,2374.33,2372.36,0.793707,0.00179617
1188.0,0.792228,609.079,2378.77,2376.8,0.793284,0.00137315
1191.0,0.79255,609.244,2383.21,2381.24,0.79255,0.000639146
1194.0,0.794063,609.409,2387.65,2385.68,0.794063,0.00215214
1197.0,0.792255,609.574,2392.09,2390.12,0.794352,0.00244115
1200.0,0.794903,609.739,2396.52,2394.55,0.794831,0.00292017
1203.0,0.791613,609.904,2400.96,2398.98,0.791613,-0.000297808
1206.0,0.792445,610.068,2405.39,2403.41,0.792356,0.000445206
1209.0,0.792447,610.233,2409.82,2407.83,0.792205,0.000294224
1212.0,0.792659,610.398,2414.24,2412.26,0.792129,0.000218241
1215.0,0.792616,610.563,2418.66,2416.68,0.792129,0.000218255
1218.0,0.791427,610.728,2423.08,2421.1,0.791427,-0.000483728
1221.0,0.795484,610.893,2427.5,2425.51,0.791513,-0.000397717
1224.0,0.791792,611.057,2431.92,2429.93,0.791779,-0.000131709
1227.0,0.792707,611.222,2436.33,2434.34,0.791779,-0.000131707
1230.0,0.791599,611.387,2440.74,2438.75,0.791599,-0.000311709
1233.0,0.792165,611.552,2445.15,2443.15,0.791901,-9.71658e-06
1236.0,0.789957,611.717,2449.56,2447.56,0.791756,-0.000154728
1239.0,0.792166,611.882,2453.96,2451.96,0.791841,-6.97467e-05
1242.0,0.793018,612.046,2458.36,2456.36,0.792024,0.000113235
1245.0,0.795478,612.211,2462.76,2460.75,0.792024,0.000113219
1248.0,0.792105,612.376,2467.16,2465.15,0.793781,0.0018702
1251.0,0.792326,612.541,2471.55,2469.54,0.792326,0.000415182
1254.0,0.791508,612.706,2475.95,2473.93,0.791508,-0.000402832
1257.0,0.793373,612.871,2480.34,2478.32,0.793373,0.00146215
1260.0,0.79249,613.036,2484.72,2482.71,0.79249,0.000579144
1263.0,0.789697,613.2,2489.11,2487.09,0.790481,-0.00142987
1266.0,0.792361,613.365,2493.49,2491.47,0.792361,0.000450112
1269.0,0.792327,613.53,2497.87,2495.85,0.792327,0.000416093
1272.0,0.791611,613.695,2502.25,2500.22,0.791611,-0.000299922
1275.0,0.79602,613.86,2506.63,2504.6,0.791654,-0.000256943
1278.0,0.790449,614.025,2511,2508.97,0.791052,-0.000858968
1281.0,0.790927,614.189,2515.37,2513.34,0.790927,-0.000984
1284.0,0.791352,614.354,2519.74,2517.7,0.790191,-0.00172004
1287.0,0.80902,614.519,2524.1,2522.07,0.79208,0.000168904
1290.0,0.79161,614.684,2528.47,2526.43,0.79161,-0.000301153
1293.0,0.793463,614.849,2532.83,2530.79,0.79226,0.000348784
1296.0,0.793284,615.014,2537.19,2535.15,0.79226,0.000348727
1299.0,0.793065,615.178,2541.55,2539.5,0.791911,-3.25849e-07
1302.0,0.794228,615.343,2545.9,2543.85,0.791707,-0.000204381
1305.0,0.791616,615.508,2550.25,2548.2,0.791616,-0.000295437
1308.0,0.789712,615.673,2554.6,2552.55,0.791144,-0.000767497
1311.0,0.7906,615.838,2558.95,2556.9,0.790992,-0.000919563
1314.0,0.791161,616.003,2563.3,2561.24,0.791161,-0.000750631
1317.0,0.79254,616.167,2567.64,2565.58,0.792259,0.000347294
1320.0,0.796395,616.332,2571.98,2569.92,0.791806,-0.000105783
1323.0,0.803402,616.497,2576.32,2574.26,0.791676,-0.000235862
1326.0,0.792977,616.662,2580.65,2578.59,0.791617,-0.000294946
1329.0,0.791615,616.827,2584.99,2582.92,0.791615,-0.000297029
1332.0,0.790742,616.992,2589.32,2587.25,0.790742,-0.00117012
1335.0,0.794319,617.157,2593.65,2591.58,0.790198,-0.00171422
1338.0,0.794422,617.321,2597.97,2595.9,0.792594,0.00068168
1341.0,0.791438,617.486,2602.3,2600.22,0.792594,0.000681578
1344.0,0.791693,617.651,2606.62,2604.54,0.791762,-0.000150525
1347.0,0.793916,617.816,2610.94,2608.86,0.793121,0.00120837
1350.0,0.798037,617.981,2615.26,2613.18,0.793121,0.00120827
1353.0,0.791796,618.146,2619.57,2617.49,0.791796,-0.000116825
1356.0,0.791755,618.31,2623.89,2621.8,0.791755,-0.000157921
1359.0,0.790883,618.475,2628.2,2626.11,0.792036,0.000122981
1362.0,0.79167,618.64,2632.5,2630.42,0.79167,-0.000243116
1365.0,0.790308,618.805,2636.81,2634.72,0.790549,-0.00136422
1368.0,0.79133,618.97,2641.11,2639.02,0.79133,-0.000583322
1371.0,0.789859,619.135,2645.42,2643.32,0.790898,-0.00101543
1374.0,0.790394,619.299,2649.71,2647.62,0.790898,-0.00101555
1377.0,0.793175,619.464,2654.01,2651.91,0.793175,0.00126133
1380.0,0.794667,619.629,2658.31,2656.21,0.793903,0.00198922
1383.0,0.791117,619.794,2662.6,2660.5,0.790842,-0.00107188
1386.0,0.792674,619.959,2666.89,2664.78,0.792674,0.000760013
1389.0,0.794032,620.124,2671.18,2669.07,0.794032,0.0021179
1392.0,0.802846,620.288,2675.46,2673.35,0.790755,-0.00115921
1395.0,0.793997,620.453,2679.74,2677.63,0.792843,0.00092868
1398.0,0.790789,620.618,2684.03,2681.91,0.791896,-1.84287e-05
1401.0,0.79055,620.783,2688.3,2686.19,0.79089,-0.00102454
1404.0,0.788432,620.948,2692.58,2690.46,0.79089,-0.00102466
1407.0,0.788658,621.113,2696.85,2694.74,0.790988,-0.000926786
1410.0,0.79292,621.278,2701.13,2699.01,0.791782,-0.000132929
1413.0,0.7923,621.442,2705.4,2703.27,0.7923,0.00038493
1416.0,0.79285,621.607,2709.66,2707.54,0.79285,0.000934791
1419.0,0.793759,621.772,2713.93,2711.8,0.793064,0.00114866
1422.0,0.79827,621.937,2718.19,2716.06,0.792044,0.000128539
1425.0,0.790903,622.102,2722.45,2720.32,0.791009,-0.000906595
1428.0,0.799697,622.267,2726.71,2724.58,0.792895,0.000979263
1431.0,0.790926,622.431,2730.96,2728.83,0.792231,0.000315119
1434.0,0.794506,622.596,2735.22,2733.08,0.792231,0.000314977
1437.0,0.795251,622.761,2739.47,2737.33,0.792039,0.000122841
1440.0,0.790805,622.926,2743.72,2741.58,0.79324,0.0013237
1443.0,0.793024,623.091,2747.97,2745.82,0.79324,0.00132356
1446.0,0.793067,623.256,2752.21,2750.07,0.793067,0.00115043
1449.0,0.789854,623.42,2756.45,2754.31,0.791726,-0.000190697
1452.0,0.790571,623.585,2760.69,2758.55,0.790614,-0.00130283
1455.0,0.792902,623.75,2764.93,2762.78,0.792315,0.000398033
1458.0,0.788894,623.915,2769.17,2767.01,0.791346,-0.000571104
1461.0,0.804125,624.08,2773.4,2771.25,0.792139,0.000221749
1464.0,0.790708,624.245,2777.63,2775.48,0.790938,-0.0009794
1467.0,0.789972,624.409,2781.86,2779.7,0.791134,-0.000783556
1470.0,0.788819,624.574,2786.09,2783.93,0.791661,-0.000256725
1473.0,0.791028,624.739,2790.31,2788.15,0.791847,-7.09037e-05
1476.0,0.791565,624.904,2794.53,2792.37,0.791565,-0.000353085
1479.0,0.793115,625.069,2798.75,2796.59,0.793115,0.00119673
1482.0,0.790802,625.234,2802.97,2800.8,0.791025,-0.000893452
1485.0,0.79168,625.399,2807.19,2805.02,0.79168,-0.000238639
1488.0,0.789269,625.563,2811.4,2809.23,0.793066,0.00114717
1491.0,0.792141,625.728,2815.61,2813.44,0.793671,0.00175198
1494.0,0.791297,625.893,2819.82,2817.65,0.792124,0.0002048
1497.0,0.790723,626.058,2824.03,2821.85,0.792124,0.000204619
1500.0,0.789368,626.223,2828.23,2826.05,0.792345,0.000425437
1503.0,0.791935,626.388,2832.44,2830.25,0.791869,-5.07529e-05
1506.0,0.792582,626.552,2836.64,2834.45,0.792582,0.000662054
1509.0,0.789713,626.717,2840.83,2838.65,0.792887,0.000966862
1512.0,0.793186,626.882,2845.03,2842.84,0.792947,0.00102667
1515.0,0.80703,627.047,2849.22,2847.03,0.793676,0.00175548
1518.0,0.790922,627.212,2853.41,2851.22,0.792208,0.000287302
1521.0,0.793068,627.377,2857.6,2855.41,0.792375,0.000454123
1524.0,0.793918,627.541,2861.79,2859.59,0.792634,0.000712952
1527.0,0.793291,627.706,2865.97,2863.78,0.792872,0.000950791
1530.0,0.793944,627.871,2870.16,2867.96,0.793882,0.00196064
1533.0,0.794799,628.036,2874.34,2872.14,0.794027,0.0021055
1536.0,0.793109,628.201,2878.52,2876.31,0.793109,0.00118738
1539.0,0.794896,628.366,2882.69,2880.49,0.793813,0.00189126
1542.0,0.793377,628.53,2886.87,2884.66,0.796252,0.00433016
1545.0,0.800821,628.695,2891.04,2888.83,0.796252,0.00433007
1548.0,0.794878,628.86,2895.21,2892.99,0.793625,0.00170298
1551.0,0.793955,629.025,2899.37,2897.16,0.793924,0.0020019
1554.0,0.793539,629.19,2903.54,2901.32,0.793924,0.00200184
1557.0,0.795193,629.355,2907.7,2905.48,0.795193,0.00327078
1560.0,0.794118,629.52,2911.86,2909.64,0.794751,0.00282873
1563.0,0.7943,629.684,2916.02,2913.8,0.7943,0.00237769
1566.0,0.794522,629.849,2920.18,2917.95,0.794522,0.00259966
1569.0,0.793136,630.014,2924.33,2922.1,0.794419,0.00249665
1572.0,0.795069,630.179,2928.48,2926.25,0.799229,0.00730664
1575.0,0.797623,630.344,2932.63,2930.4,0.797623,0.00570064
1578.0,0.795464,630.509,2936.78,2934.55,0.796162,0.00423964
1581.0,0.79662,630.673,2940.93,2938.69,0.797506,0.00558364
1584.0,0.797461,630.838,2945.07,2942.83,0.797506,0.00558364
1587.0,0.799129,631.003,2949.21,2946.97,0.799129,0.00720664
1590.0,0.797046,631.168,2953.35,2951.11,0.798634,0.00671164
1593.0,0.798183,631.333,2957.49,2955.24,0.798223,0.00630064
1596.0,0.810688,631.498,2961.62,2959.38,0.802639,0.0107166
1599.0,0.798082,631.662,2965.75,2963.51,0.799616,0.00769364
1602.0,0.799775,631.827,2969.88,2967.64,0.799775,0.00785264
1605.0,0.801969,631.992,2974.01,2971.76,0.800742,0.00881964
1608.0,0.798554,632.157,2978.14,2975.89,0.800081,0.00815864
1611.0,0.798661,632.322,2982.26,2980.01,0.799337,0.00741464
1614.0,0.801139,632.487,2986.38,2984.13,0.801139,0.00921664
1617.0,0.800793,632.651,2990.5,2988.24,0.801633,0.00971064
1620.0,0.801736,632.816,2994.62,2992.36,0.802536,0.0106136
1623.0,0.80194,632.981,2998.73,2996.47,0.803614,0.0116916
1626.0,0.806333,633.146,3002.85,3000.58,0.804834,0.0129116
1629.0,0.803598,633.311,3006.96,3004.69,0.804834,0.0129116
1632.0,0.80591,633.476,3011.07,3008.8,0.807442,0.0155196
1635.0,0.804261,633.641,3015.17,3012.91,0.806593,0.0146706
1638.0,0.806275,633.805,3019.28,3017.01,0.806275,0.0143526
1641.0,0.807758,633.97,3023.38,3021.11,0.807057,0.0151346
1644.0,0.809045,634.135,3027.48,3025.21,0.808263,0.0163406
1647.0,0.809584,634.3,3031.58,3029.3,0.808908,0.0169856
1650.0,0.810182,634.465,3035.68,3033.4,0.810823,0.0189006
1653.0,0.812293,634.63,3039.77,3037.49,0.812016,0.0200936
1656.0,0.813169,634.794,3043.86,3041.58,0.813027,0.0211046
1659.0,0.812746,634.959,3047.95,3045.67,0.812791,0.0208686
1662.0,0.816511,635.124,3052.04,3049.75,0.816047,0.0241246
1665.0,0.815909,635.289,3056.12,3053.84,0.816047,0.0241246
1668.0,0.81718,635.454,3060.21,3057.92,0.817274,0.0253516
1671.0,0.818052,635.619,3064.29,3062,0.818247,0.0263246
1674.0,0.826772,635.783,3068.37,3066.07,0.819831,0.0279086
1677.0,0.818367,635.948,3072.44,3070.15,0.819932,0.0280096
1680.0,0.822856,636.113,3076.52,3074.22,0.82163,0.0297076
1683.0,0.82344,636.278,3080.59,3078.29,0.822784,0.0308616
1686.0,0.824943,636.443,3084.66,3082.36,0.824452,0.0325296
1689.0,0.826116,636.608,3088.73,3086.43,0.826116,0.0341936
1692.0,0.828884,636.772,3092.8,3090.49,0.828675,0.0367526
1695.0,0.830162,636.937,3096.86,3094.55,0.830162,0.0382396
1698.0,0.833913,637.102,3100.92,3098.61,0.833913,0.0419906
1701.0,0.833246,637.267,3104.98,3102.67,0.835924,0.0440016
1704.0,0.834363,637.432,3109.04,3106.73,0.837922,0.0459996
1707.0,0.839084,637.597,3113.1,3110.78,0.838271,0.0463486
1710.0,0.840258,637.762,3117.15,3114.83,0.841701,0.0497786
1713.0,0.839593,637.926,3121.2,3118.88,0.842827,0.0509046
1716.0,0.844219,638.091,3125.25,3122.93,0.844939,0.0530166
1719.0,0.847656,638.256,3129.3,3126.98,0.847453,0.0555306
1722.0,0.851848,638.421,3133.34,3131.02,0.848497,0.0565746
1725.0,0.85224,638.586,3137.39,3135.06,0.85077,0.0588476
1728.0,0.85365,638.751,3141.43,3139.1,0.85365,0.0617276
1731.0,0.85476,638.915,3145.47,3143.14,0.855292,0.0633696
1734.0,0.856115,639.08,3149.51,3147.17,0.859575,0.0676526
1737.0,0.863054,639.245,3153.54,3151.21,0.859785,0.0678626
1740.0,0.865131,639.41,3157.57,3155.24,0.862929,0.0710066
1743.0,0.864605,639.575,3161.6,3159.27,0.864605,0.0726826
1746.0,0.865577,639.74,3165.63,3163.29,0.867755,0.0758326
1749.0,0.873476,639.904,3169.66,3167.32,0.870678,0.0787556
1752.0,0.873192,640.069,3173.68,3171.34,0.873061,0.0811386
1755.0,0.872722,640.234,3177.71,3175.36,0.873275,0.0813526
1758.0,0.875753,640.399,3181.73,3179.38,0.876102,0.0841796
1761.0,0.878096,640.564,3185.75,3183.4,0.878096,0.0861736
1764.0,0.879485,640.729,3189.76,3187.41,0.879485,0.0875626
1767.0,0.882832,640.893,3193.78,3191.42,0.883838,0.0919156
1770.0,0.883034,641.058,3197.79,3195.43,0.883608,0.0916856
1773.0,0.888964,641.223,3201.8,3199.44,0.887075,0.0951526
1776.0,0.888136,641.388,3205.81,3203.45,0.887409,0.0954866
1779.0,0.888023,641.553,3209.81,3207.45,0.890123,0.0982006
1782.0,0.891812,641.718,3213.82,3211.45,0.891812,0.0998896
1785.0,0.892799,641.883,3217.82,3215.45,0.892799,0.100877
1788.0,0.895506,642.047,3221.82,3219.45,0.894882,0.10296
1791.0,0.893183,642.212,3225.82,3223.45,0.894389,0.102467
1794.0,0.89604,642.377,3229.81,3227.44,0.89604,0.104118
1797.0,0.897565,642.542,3233.81,3231.43,0.897565,0.105643
1800.0,0.898308,642.707,3237.8,3235.42,0.898308,0.106386
1803.0,0.901661,642.872,3241.79,3239.41,0.900177,0.108255
1806.0,0.903209,643.036,3245.77,3243.4,0.901031,0.109109
1809.0,0.912539,643.201,3249.76,3247.38,0.901829,0.109907
1812.0,0.901149,643.366,3253.74,3251.36,0.901249,0.109327
1815.0,0.904056,643.531,3257.72,3255.34,0.904056,0.112134
1818.0,0.90018,643.696,3261.7,3259.32,0.904317,0.112395
1821.0,0.903305,643.861,3265.68,3263.29,0.903963,0.112041
1824.0,0.904569,644.025,3269.66,3267.27,0.904569,0.112647
1827.0,0.903784,644.19,3273.63,3271.24,0.90497,0.113048
1830.0,0.90715,644.355,3277.6,3275.21,0.90497,0.113048
1833.0,0.905599,644.52,3281.57,3279.18,0.903783,0.111861
1836.0,0.906365,644.685,3285.54,3283.14,0.906365,0.114443
1839.0,0.907539,644.85,3289.5,3287.1,0.906191,0.114269
1842.0,0.907127,645.015,3293.47,3291.07,0.906191,0.114269
1845.0,0.90554,645.179,3297.43,3295.02,0.90649,0.114568
1848.0,0.911368,645.344,3301.39,3298.98,0.909344,0.117422
1851.0,0.907933,645.509,3305.34,3302.94,0.908242,0.11632
1854.0,0.912448,645.674,3309.3,3306.89,0.909225,0.117303
1857.0,0.907333,645.839,3313.25,3310.84,0.908783,0.116861
1860.0,0.910599,646.004,3317.2,3314.79,0.910599,0.118677
1863.0,0.911443,646.168,3321.15,3318.74,0.911968,0.120046
1866.0,0.909759,646.333,3325.1,3322.68,0.911871,0.119949
1869.0,0.91055,646.498,3329.04,3326.63,0.911871,0.119949
1872.0,0.914209,646.663,3332.98,3330.57,0.912226,0.120304
1875.0,0.915086,646.828,3336.93,3334.51,0.912601,0.120679
1878.0,0.916204,646.993,3340.86,3338.44,0.914942,0.12302
1881.0,0.914361,647.157,3344.8,3342.38,0.914942,0.12302
1884.0,0.913325,647.322,3348.74,3346.31,0.916414,0.124492
1887.0,0.918934,647.487,3352.67,3350.24,0.918847,0.126925
1890.0,0.919263,647.652,3356.6,3354.17,0.91917,0.127248
1893.0,0.918543,647.817,3360.53,3358.1,0.918722,0.1268
1896.0,0.923471,647.982,3364.46,3362.02,0.920019,0.128097
1899.0,0.919302,648.146,3368.38,3365.95,0.920019,0.128097
1902.0,0.917983,648.311,3372.3,3369.87,0.919923,0.128001
1905.0,0.921633,648.476,3376.22,3373.79,0.921633,0.129711
1908.0,0.922726,648.641,3380.14,3377.7,0.922726,0.130804
1911.0,0.923659,648.806,3384.06,3381.62,0.923659,0.131737
1914.0,0.921902,648.971,3387.98,3385.53,0.924011,0.132089
1917.0,0.923457,649.136,3391.89,3389.44,0.924096,0.132174
1920.0,0.925548,649.3,3395.8,3393.35,0.925548,0.133626
1923.0,0.9244,649.465,3399.71,3397.26,0.925485,0.133563
1926.0,0.923689,649.63,3403.62,3401.16,0.924628,0.132706
1929.0,0.927227,649.795,3407.52,3405.07,0.924628,0.132706
1932.0,0.930436,649.96,3411.42,3408.97,0.926696,0.134774
1935.0,0.925977,650.125,3415.32,3412.87,0.925977,0.134055
1938.0,0.92835,650.289,3419.22,3416.76,0.925311,0.133389
1941.0,0.925247,650.454,3423.12,3420.66,0.924634,0.132712
1944.0,0.928433,650.619,3427.02,3424.55,0.924634,0.132712
1947.0,0.923171,650.784,3430.91,3428.44,0.923885,0.131963
1950.0,0.923545,650.949,3434.8,3432.33,0.923885,0.131963
1953.0,0.923489,651.114,3438.69,3436.22,0.923489,0.131567
1956.0,0.921022,651.278,3442.58,3440.11,0.922809,0.130887
1959.0,0.918589,651.443,3446.46,3443.99,0.92012,0.128198
1962.0,0.919089,651.608,3450.34,3447.87,0.919089,0.127167
1965.0,0.917863,651.773,3454.23,3451.75,0.917134,0.125212
1968.0,0.92184,651.938,3458.11,3455.63,0.917638,0.125716
1971.0,0.913779,652.103,3461.98,3459.5,0.915814,0.123892
1974.0,0.912858,652.267,3465.86,3463.38,0.912858,0.120936
1977.0,0.909952,652.432,3469.73,3467.25,0.910803,0.118881
1980.0,0.910874,652.597,3473.6,3471.12,0.910803,0.118881
1983.0,0.907188,652.762,3477.47,3474.99,0.907188,0.115266
1986.0,0.905928,652.927,3481.34,3478.85,0.904418,0.112496
1989.0,0.902465,653.092,3485.21,3482.72,0.903635,0.111713
1992.0,0.900831,653.257,3489.07,3486.58,0.902712,0.11079
1995.0,0.899926,653.421,3492.93,3490.44,0.900889,0.108967
1998.0,0.895081,653.586,3496.79,3494.3,0.895081,0.103159
2001.0,0.89391,653.751,3500.65,3498.15,0.892777,0.100855
2004.0,0.892515,653.916,3504.51,3502.01,0.891067,0.0991446
2007.0,0.887749,654.081,3508.36,3505.86,0.890036,0.0981136
2010.0,0.885688,654.246,3512.21,3509.71,0.88687,0.0949476
2013.0,0.887616,654.41,3516.06,3513.56,0.885414,0.0934916
2016.0,0.879944,654.575,3519.91,3517.4,0.880779,0.0888566
2019.0,0.880179,654.74,3523.76,3521.25,0.880179,0.0882566
2022.0,0.87537,654.905,3527.6,3525.09,0.876523,0.0846006
2025.0,0.874732,655.07,3531.44,3528.93,0.874732,0.0828096
2028.0,0.872054,655.235,3535.28,3532.77,0.871261,0.0793386
2031.0,0.869128,655.399,3539.12,3536.61,0.869571,0.0776486
2034.0,0.86858,655.564,3542.96,3540.44,0.86858,0.0766576
2037.0,0.864152,655.729,3546.79,3544.27,0.864152,0.0722296
2040.0,0.864082,655.894,3550.63,3548.1,0.863689,0.0717666
2043.0,0.864776,656.059,3554.46,3551.93,0.863381,0.0714586
2046.0,0.859018,656.224,3558.28,3555.76,0.859018,0.0670956
2047.0,0.860437,656.279,3559.56,3557.04,0.859018,0.0670956