File: data/processed/processed_data/2024-10-11/2024-10-11_sodiumphosphatedibasicheptahydratepowder_n_n_n_solid_10000_0_5.csv
Pixels #,Intensity (a.u.),Wavelength (nm),Raman shift (cm-1),Raman shift (cm-1) adjusted,Filtered Intensity (a.u.),Baselined Filtered Intensity (a.u.)
0.0,0.826028,543.803,407.968,406.929,0.825997,0.0287838
3.0,0.823452,543.967,413.541,412.499,0.82584,0.0286268
6.0,0.825072,544.132,419.11,418.065,0.82584,0.0286268
9.0,0.827237,544.297,424.676,423.628,0.826255,0.0290418
12.0,0.830912,544.462,430.238,429.188,0.825651,0.0284378
15.0,0.82826,544.627,435.797,434.744,0.8261,0.0288868
18.0,0.827756,544.792,441.353,440.297,0.8261,0.0288868
21.0,0.825534,544.957,446.905,445.847,0.824273,0.0270598
24.0,0.82298,545.121,452.454,451.393,0.824997,0.0277838
27.0,0.825166,545.286,457.999,456.936,0.825073,0.0278598
30.0,0.82466,545.451,463.542,462.476,0.825657,0.0284438
33.0,0.826852,545.616,469.08,468.012,0.826852,0.0296388
36.0,0.824116,545.781,474.616,473.545,0.82613,0.0289168
39.0,0.855029,545.946,480.148,479.075,0.826484,0.0292708
42.0,0.823204,546.11,485.677,484.601,0.824919,0.0277058
45.0,0.82443,546.275,491.202,490.124,0.82443,0.0272168
48.0,0.830008,546.44,496.725,495.643,0.826939,0.0297258
51.0,0.827431,546.605,502.243,501.16,0.827431,0.0302178
54.0,0.839215,546.77,507.759,506.672,0.828371,0.0311578
57.0,0.826976,546.935,513.271,512.182,0.82809,0.0308768
60.0,0.830459,547.099,518.78,517.688,0.827867,0.0306538
63.0,0.826533,547.264,524.285,523.191,0.827867,0.0306538
66.0,0.825759,547.429,529.788,528.691,0.828341,0.0311278
69.0,0.826779,547.594,535.287,534.187,0.828341,0.0311278
72.0,0.826617,547.759,540.782,539.68,0.826617,0.0294038
75.0,0.824833,547.924,546.275,545.17,0.825433,0.0282198
78.0,0.826182,548.088,551.763,550.656,0.826014,0.0288008
81.0,0.826198,548.253,557.249,556.139,0.825526,0.0283128
84.0,0.824608,548.418,562.732,561.619,0.824608,0.0273948
87.0,0.823225,548.583,568.211,567.096,0.825193,0.0279798
90.0,0.826236,548.748,573.686,572.569,0.825777,0.0285638
93.0,0.822272,548.913,579.159,578.039,0.823113,0.0258998
96.0,0.823471,549.078,584.628,583.506,0.823162,0.0259488
99.0,0.82405,549.242,590.094,588.969,0.823324,0.0261108
102.0,0.822945,549.407,595.557,594.429,0.822945,0.0257318
105.0,0.824522,549.572,601.016,599.886,0.824522,0.0273088
108.0,0.822385,549.737,606.472,605.339,0.822385,0.0251718
111.0,0.820621,549.902,611.925,610.79,0.820717,0.0235038
114.0,0.820009,550.067,617.375,616.237,0.821186,0.0239728
117.0,0.82121,550.231,622.821,621.68,0.82121,0.0239968
120.0,0.820036,550.396,628.264,627.121,0.820525,0.0233118
123.0,0.819766,550.561,633.704,632.558,0.821651,0.0244378
126.0,0.819079,550.726,639.14,637.992,0.821651,0.0244378
129.0,0.821648,550.891,644.574,643.423,0.821217,0.0240038
132.0,0.824349,551.056,650.004,648.85,0.821217,0.0240038
135.0,0.81985,551.22,655.431,654.274,0.819907,0.0226938
138.0,0.819299,551.385,660.854,659.695,0.820669,0.0234558
141.0,0.819425,551.55,666.274,665.113,0.822075,0.0248618
144.0,0.82161,551.715,671.691,670.528,0.821885,0.0246718
147.0,0.819231,551.88,677.105,675.939,0.819231,0.0220178
150.0,0.820044,552.045,682.516,681.347,0.820044,0.0228308
153.0,0.819038,552.209,687.923,686.752,0.819608,0.0223948
156.0,0.819918,552.374,693.327,692.153,0.819608,0.0223948
159.0,0.8297,552.539,698.728,697.552,0.818701,0.0214878
162.0,0.818622,552.704,704.126,702.947,0.818701,0.0214878
165.0,0.817194,552.869,709.52,708.339,0.818591,0.0213778
168.0,0.81865,553.034,714.912,713.727,0.81865,0.0214368
171.0,0.816694,553.199,720.3,719.113,0.819127,0.0219138
174.0,0.818446,553.363,725.684,724.495,0.818938,0.0217248
177.0,0.816103,553.528,731.066,729.874,0.816454,0.0192408
180.0,0.819612,553.693,736.444,735.25,0.819612,0.0223988
183.0,0.817787,553.858,741.82,740.623,0.820147,0.0229338
186.0,0.819483,554.023,747.192,745.992,0.820147,0.0229338
189.0,0.817778,554.188,752.561,751.359,0.817778,0.0205648
192.0,0.81998,554.352,757.926,756.722,0.816904,0.0196908
195.0,0.818306,554.517,763.289,762.082,0.818306,0.0210928
198.0,0.818444,554.682,768.648,767.438,0.817636,0.0204228
201.0,0.815517,554.847,774.004,772.792,0.815517,0.0183038
204.0,0.816261,555.012,779.357,778.142,0.816297,0.0190838
207.0,0.81497,555.177,784.706,783.489,0.815662,0.0184488
210.0,0.814926,555.341,790.053,788.833,0.815662,0.0184488
213.0,0.817385,555.506,795.396,794.174,0.817385,0.0201718
216.0,0.818861,555.671,800.737,799.512,0.818394,0.0211808
219.0,0.814549,555.836,806.074,804.846,0.817558,0.0203448
222.0,0.815849,556.001,811.407,810.178,0.81705,0.0198368
225.0,0.817752,556.166,816.738,815.506,0.81705,0.0198368
228.0,0.816238,556.33,822.066,820.831,0.8166,0.0193868
231.0,0.816451,556.495,827.39,826.153,0.8166,0.0193868
234.0,0.817804,556.66,832.711,831.472,0.817625,0.0204118
237.0,0.815008,556.825,838.029,836.787,0.818537,0.0213238
240.0,0.815266,556.99,843.344,842.1,0.818537,0.0213238
243.0,0.819755,557.155,848.656,847.409,0.820108,0.0228948
246.0,0.824088,557.32,853.965,852.715,0.824088,0.0268748
249.0,0.849161,557.484,859.27,858.018,0.832492,0.0352788
252.0,0.839803,557.649,864.572,863.318,0.839803,0.0425898
255.0,0.839829,557.814,869.872,868.615,0.839827,0.0426138
258.0,0.833122,557.979,875.168,873.908,0.833122,0.0359088
261.0,0.828165,558.144,880.461,879.199,0.828165,0.0309518
264.0,0.818958,558.309,885.751,884.486,0.820405,0.0231918
267.0,0.822842,558.473,891.037,889.77,0.820319,0.0231058
270.0,0.817051,558.638,896.321,895.051,0.816386,0.0191728
273.0,0.824269,558.803,901.601,900.329,0.816386,0.0191728
276.0,0.815089,558.968,906.879,905.604,0.814025,0.0168118
279.0,0.81509,559.133,912.153,910.876,0.814025,0.0168118
282.0,0.816422,559.298,917.424,916.145,0.81425,0.0170368
285.0,0.814557,559.462,922.692,921.41,0.814376,0.0171628
288.0,0.812609,559.627,927.957,926.673,0.814376,0.0171628
291.0,0.816158,559.792,933.219,931.932,0.816158,0.0189448
294.0,0.815644,559.957,938.478,937.188,0.815644,0.0184308
297.0,0.818179,560.122,943.733,942.441,0.81875,0.0215368
300.0,0.819272,560.287,948.986,947.691,0.820635,0.0234218
303.0,0.820456,560.452,954.235,952.938,0.820635,0.0234218
306.0,0.824821,560.616,959.482,958.182,0.824821,0.0276078
309.0,0.836569,560.781,964.725,963.423,0.836569,0.0393558
312.0,0.857516,560.946,969.965,968.661,0.871823,0.0746098
315.0,0.89222,561.111,975.202,973.896,0.89222,0.0950068
318.0,0.902068,561.276,980.436,979.127,0.902068,0.104855
321.0,0.885396,561.441,985.667,984.356,0.885396,0.0881828
324.0,0.856734,561.605,990.895,989.581,0.856734,0.0595208
327.0,0.833897,561.77,996.12,994.803,0.833897,0.0366838
330.0,0.82075,561.935,1001.34,1000.02,0.82075,0.0235368
333.0,0.813482,562.1,1006.56,1005.24,0.814084,0.0168708
336.0,0.812105,562.265,1011.78,1010.45,0.812105,0.0148918
339.0,0.813335,562.43,1016.99,1015.66,0.812706,0.0154928
342.0,0.807384,562.594,1022.2,1020.87,0.809346,0.0121328
345.0,0.807912,562.759,1027.4,1026.07,0.809881,0.0126678
348.0,0.808642,562.924,1032.61,1031.27,0.8099,0.0126868
351.0,0.811603,563.089,1037.81,1036.47,0.810396,0.0131828
354.0,0.809659,563.254,1043.01,1041.67,0.809866,0.0126528
357.0,0.811454,563.419,1048.2,1046.86,0.8114,0.0141868
360.0,0.812823,563.583,1053.39,1052.05,0.812637,0.0154238
363.0,0.815966,563.748,1058.58,1057.23,0.81433,0.0171168
366.0,0.815515,563.913,1063.77,1062.42,0.81442,0.0172068
369.0,0.817183,564.078,1068.95,1067.6,0.81442,0.0172068
372.0,0.81383,564.243,1074.13,1072.77,0.814094,0.0168808
375.0,0.812754,564.408,1079.3,1077.95,0.812754,0.0155408
378.0,0.817963,564.573,1084.48,1083.12,0.810678,0.0134648
381.0,0.811091,564.737,1089.65,1088.28,0.809716,0.0125028
384.0,0.807565,564.902,1094.81,1093.45,0.809404,0.0121908
387.0,0.806781,565.067,1099.98,1098.61,0.806781,0.00956775
390.0,0.807355,565.232,1105.14,1103.77,0.806008,0.00879475
393.0,0.804952,565.397,1110.3,1108.93,0.804952,0.00773875
396.0,0.805683,565.562,1115.45,1114.08,0.803726,0.00651275
399.0,0.806567,565.726,1120.6,1119.23,0.803868,0.00665475
402.0,0.804709,565.891,1125.75,1124.37,0.804521,0.00730775
405.0,0.816822,566.056,1130.9,1129.52,0.804165,0.00695175
408.0,0.8057,566.221,1136.04,1134.66,0.803649,0.00643575
411.0,0.803562,566.386,1141.18,1139.8,0.803649,0.00643575
414.0,0.803493,566.551,1146.32,1144.93,0.803493,0.00627975
417.0,0.806358,566.715,1151.45,1150.06,0.803268,0.00605476
420.0,0.803578,566.88,1156.58,1155.19,0.803726,0.00651277
423.0,0.80341,567.045,1161.71,1160.32,0.80341,0.00619678
426.0,0.80503,567.21,1166.84,1165.44,0.803545,0.00633179
429.0,0.802528,567.375,1171.96,1170.56,0.80345,0.0062368
432.0,0.805086,567.54,1177.08,1175.68,0.805086,0.00787283
435.0,0.804393,567.704,1182.19,1180.79,0.80465,0.00743688
438.0,0.801206,567.869,1187.31,1185.9,0.803489,0.00627592
441.0,0.805071,568.034,1192.42,1191.01,0.803489,0.00627599
444.0,0.801728,568.199,1197.52,1196.11,0.801236,0.00402306
447.0,0.804645,568.364,1202.63,1201.21,0.801581,0.00436818
450.0,0.803921,568.529,1207.73,1206.31,0.801581,0.00436832
453.0,0.81009,568.694,1212.83,1211.41,0.801149,0.00393648
456.0,0.80158,568.858,1217.92,1216.5,0.80158,0.00436766
459.0,0.803471,569.023,1223.02,1221.59,0.803471,0.00625887
462.0,0.799695,569.188,1228.11,1226.68,0.801592,0.0043801
465.0,0.799665,569.353,1233.19,1231.76,0.799665,0.00245335
468.0,0.799872,569.518,1238.28,1236.85,0.799872,0.00266063
471.0,0.801447,569.683,1243.36,1241.92,0.801447,0.00423594
474.0,0.802589,569.847,1248.43,1247,0.8001,0.00288927
477.0,0.800361,570.012,1253.51,1252.07,0.800157,0.00294663
480.0,0.798615,570.177,1258.58,1257.14,0.800157,0.00294701
483.0,0.803327,570.342,1263.65,1262.21,0.800693,0.00348342
486.0,0.802435,570.507,1268.72,1267.27,0.800602,0.00339284
489.0,0.799615,570.672,1273.78,1272.33,0.798927,0.0017183
492.0,0.797543,570.836,1278.84,1277.39,0.798927,0.00171878
495.0,0.801322,571.001,1283.9,1282.44,0.801322,0.00411426
498.0,0.798654,571.166,1288.95,1287.5,0.798654,0.00144678
501.0,0.801074,571.331,1294,1292.55,0.800929,0.00372231
504.0,0.797428,571.496,1299.05,1297.59,0.797562,0.000355849
507.0,0.797491,571.661,1304.1,1302.63,0.797562,0.000356401
510.0,0.795806,571.825,1309.14,1307.67,0.797861,0.000655958
513.0,0.798678,571.99,1314.18,1312.71,0.798671,0.00146652
516.0,0.797014,572.155,1319.22,1317.75,0.798557,0.0013531
519.0,0.801455,572.32,1324.25,1322.78,0.801455,0.00425169
522.0,0.796974,572.485,1329.28,1327.81,0.799544,0.00234129
525.0,0.800694,572.65,1334.31,1332.83,0.799707,0.0025049
528.0,0.798136,572.815,1339.33,1337.86,0.798233,0.00103154
531.0,0.794007,572.979,1344.36,1342.88,0.797431,0.000230187
534.0,0.798126,573.144,1349.38,1347.89,0.798126,0.000925825
537.0,0.800493,573.309,1354.39,1352.91,0.797155,-4.45347e-05
540.0,0.796683,573.474,1359.41,1357.92,0.79676,-0.000438885
543.0,0.797405,573.639,1364.42,1362.93,0.797852,0.000653763
546.0,0.797342,573.804,1369.43,1367.93,0.797595,0.000397414
549.0,0.797595,573.968,1374.43,1372.94,0.797068,-0.000128929
552.0,0.801896,574.133,1379.43,1377.94,0.797068,-0.000128274
555.0,0.795505,574.298,1384.43,1382.93,0.79656,-0.000635605
558.0,0.796793,574.463,1389.43,1387.93,0.797493,0.000298058
561.0,0.797062,574.628,1394.42,1392.92,0.797062,-0.000132269
564.0,0.795062,574.793,1399.41,1397.91,0.795617,-0.0015766
567.0,0.797234,574.957,1404.4,1402.89,0.797161,-3.19359e-05
570.0,0.796412,575.122,1409.39,1407.87,0.796412,-0.000780278
573.0,0.808149,575.287,1414.37,1412.85,0.794997,-0.00219463
576.0,0.798627,575.452,1419.35,1417.83,0.795404,-0.001787
579.0,0.800644,575.617,1424.32,1422.81,0.796151,-0.00103937
582.0,0.796118,575.782,1429.3,1427.78,0.796118,-0.00107174
585.0,0.811393,575.946,1434.27,1432.74,0.795794,-0.00139513
588.0,0.797605,576.111,1439.24,1437.71,0.795414,-0.00177451
591.0,0.793339,576.276,1444.2,1442.67,0.794584,-0.00260391
594.0,0.795931,576.441,1449.16,1447.63,0.796114,-0.00107333
597.0,0.795663,576.606,1454.12,1452.59,0.795663,-0.00152376
600.0,0.802517,576.771,1459.08,1457.54,0.795366,-0.0018202
603.0,0.793966,576.936,1464.03,1462.5,0.795134,-0.00205164
606.0,0.80361,577.1,1468.98,1467.44,0.796276,-0.000909108
609.0,0.794671,577.265,1473.93,1472.39,0.796195,-0.000989575
612.0,0.795792,577.43,1478.88,1477.33,0.796195,-0.000989056
615.0,0.794688,577.595,1483.82,1482.27,0.793543,-0.00364055
618.0,0.796452,577.76,1488.76,1487.21,0.793575,-0.00360807
621.0,0.796861,577.925,1493.7,1492.14,0.796861,-0.000321596
624.0,0.79754,578.089,1498.63,1497.08,0.796319,-0.000863134
627.0,0.793231,578.254,1503.56,1502.01,0.793728,-0.00345368
630.0,0.824228,578.419,1508.49,1506.93,0.795405,-0.00177625
633.0,0.793182,578.584,1513.41,1511.85,0.794925,-0.00225584
636.0,0.794462,578.749,1518.34,1516.77,0.794462,-0.00271845
639.0,0.793862,578.914,1523.26,1521.69,0.794456,-0.00272408
642.0,0.794905,579.078,1528.17,1526.61,0.794905,-0.00227474
645.0,0.794289,579.243,1533.09,1531.52,0.794289,-0.00289042
648.0,0.792778,579.408,1538,1536.43,0.793053,-0.00412613
651.0,0.794275,579.573,1542.91,1541.33,0.794257,-0.00292188
654.0,0.794291,579.738,1547.82,1546.24,0.794291,-0.00288765
657.0,0.796244,579.903,1552.72,1551.14,0.796244,-0.000934439
660.0,0.793986,580.067,1557.62,1556.04,0.794878,-0.00230024
663.0,0.795166,580.232,1562.52,1560.93,0.794878,-0.00230007
666.0,0.804688,580.397,1567.41,1565.83,0.793814,-0.00336392
669.0,0.796106,580.562,1572.3,1570.72,0.7953,-0.00187779
672.0,0.871032,580.727,1577.19,1575.6,0.794511,-0.00266667
675.0,0.794723,580.892,1582.08,1580.49,0.793408,-0.00376958
678.0,0.792608,581.057,1586.96,1585.37,0.792739,-0.00443852
681.0,0.794161,581.221,1591.84,1590.25,0.794476,-0.00270149
684.0,0.794117,581.386,1596.72,1595.12,0.794476,-0.00270149
687.0,0.795352,581.551,1601.6,1600,0.794446,-0.00273152
690.0,0.794087,581.716,1606.47,1604.87,0.794446,-0.00273157
693.0,0.792461,581.881,1611.34,1609.73,0.794574,-0.00260364
696.0,0.793682,582.046,1616.21,1614.6,0.794574,-0.00260373
699.0,0.794334,582.21,1621.07,1619.46,0.798535,0.00135716
702.0,0.800704,582.375,1625.93,1624.32,0.793916,-0.00326196
705.0,0.794916,582.54,1630.79,1629.18,0.794916,-0.00226208
708.0,0.797894,582.705,1635.65,1634.03,0.795737,-0.00144122
711.0,0.795873,582.87,1640.5,1638.88,0.794954,-0.00222438
714.0,0.794883,583.035,1645.35,1643.73,0.795326,-0.00185254
717.0,0.79352,583.199,1650.2,1648.57,0.795326,-0.00185272
720.0,0.796385,583.364,1655.04,1653.42,0.795995,-0.00118392
723.0,0.793651,583.529,1659.89,1658.26,0.793651,-0.00352814
726.0,0.796119,583.694,1664.73,1663.1,0.796119,-0.00106038
729.0,0.794665,583.859,1669.56,1667.93,0.794472,-0.00270764
732.0,0.794677,584.024,1674.4,1672.76,0.794068,-0.00311192
735.0,0.794843,584.188,1679.23,1677.59,0.794843,-0.00233723
738.0,0.794866,584.353,1684.06,1682.42,0.795402,-0.00177856
741.0,0.794884,584.518,1688.88,1687.24,0.794884,-0.00229689
744.0,0.794376,584.683,1693.71,1692.06,0.794376,-0.00280524
747.0,0.796537,584.848,1698.53,1696.88,0.796537,-0.00064461
750.0,0.793061,585.013,1703.35,1701.7,0.793914,-0.00326799
753.0,0.795793,585.178,1708.16,1706.51,0.795741,-0.00144139
756.0,0.794877,585.342,1712.97,1711.32,0.794877,-0.00230581
759.0,0.793197,585.507,1717.78,1716.13,0.793929,-0.00325425
762.0,0.794708,585.672,1722.59,1720.93,0.794069,-0.00311472
765.0,0.793788,585.837,1727.39,1725.73,0.793788,-0.00339623
768.0,0.794682,586.002,1732.2,1730.53,0.794682,-0.00250276
771.0,0.79633,586.167,1737,1735.33,0.795073,-0.00211232
774.0,0.798592,586.331,1741.79,1740.12,0.794881,-0.00230489
777.0,0.793485,586.496,1746.58,1744.91,0.793604,-0.00358248
780.0,0.793059,586.661,1751.38,1749.7,0.793059,-0.00412809
783.0,0.847943,586.826,1756.16,1754.49,0.79373,-0.00345773
786.0,0.797798,586.991,1760.95,1759.27,0.793158,-0.00403039
789.0,0.796977,587.156,1765.73,1764.05,0.794341,-0.00284808
792.0,0.795018,587.32,1770.51,1768.83,0.794341,-0.00284879
795.0,0.796591,587.485,1775.29,1773.61,0.793098,-0.00409253
798.0,0.805802,587.65,1780.06,1778.38,0.79503,-0.00216128
801.0,0.79467,587.815,1784.84,1783.15,0.794344,-0.00284806
804.0,0.793902,587.98,1789.61,1787.91,0.793459,-0.00373386
807.0,0.793679,588.145,1794.37,1792.68,0.792675,-0.00451869
810.0,0.79258,588.309,1799.14,1797.44,0.79258,-0.00461456
813.0,0.793391,588.474,1803.9,1802.2,0.794347,-0.00284846
816.0,0.794698,588.639,1808.66,1806.96,0.794347,-0.00284938
819.0,0.793629,588.804,1813.41,1811.71,0.793629,-0.00356832
822.0,0.792121,588.969,1818.17,1816.46,0.793312,-0.00388629
825.0,0.795073,589.134,1822.92,1821.21,0.794585,-0.00261429
828.0,0.79641,589.299,1827.66,1825.96,0.794487,-0.00271331
831.0,0.794515,589.463,1832.41,1830.7,0.794487,-0.00271436
834.0,0.793892,589.628,1837.15,1835.44,0.794291,-0.00291143
837.0,0.793078,589.793,1841.89,1840.18,0.794291,-0.00291253
840.0,0.79329,589.958,1846.63,1844.91,0.79329,-0.00391464
843.0,0.795912,590.123,1851.36,1849.65,0.794869,-0.00233679
846.0,0.79799,590.288,1856.1,1854.37,0.80012,0.00291305
849.0,0.792042,590.452,1860.83,1859.1,0.796016,-0.0011921
852.0,0.793842,590.617,1865.55,1863.83,0.795652,-0.00155726
855.0,0.79567,590.782,1870.28,1868.55,0.79567,-0.00154044
858.0,0.794579,590.947,1875,1873.27,0.794645,-0.00256663
861.0,0.795836,591.112,1879.72,1877.98,0.795836,-0.00137684
864.0,0.793702,591.277,1884.43,1882.7,0.797276,6.19405e-05
867.0,0.809497,591.441,1889.15,1887.41,0.796898,-0.000317286
870.0,0.797003,591.606,1893.86,1892.12,0.796395,-0.00082151
873.0,0.799683,591.771,1898.57,1896.83,0.794402,-0.00281575
876.0,0.795939,591.936,1903.27,1901.53,0.794833,-0.00238599
879.0,0.795547,592.101,1907.98,1906.23,0.795547,-0.00167324
882.0,0.795671,592.266,1912.68,1910.93,0.796297,-0.000924512
885.0,0.794426,592.43,1917.38,1915.62,0.796048,-0.00117479
888.0,0.799152,592.595,1922.07,1920.32,0.796048,-0.00117606
891.0,0.7956,592.76,1926.76,1925.01,0.79477,-0.00245534
894.0,0.794925,592.925,1931.45,1929.7,0.794925,-0.00230164
897.0,0.796251,593.09,1936.14,1934.38,0.79603,-0.00119795
900.0,0.797631,593.255,1940.83,1939.06,0.79603,-0.00119928
903.0,0.795395,593.42,1945.51,1943.74,0.795786,-0.00144461
906.0,0.800475,593.584,1950.19,1948.42,0.799845,0.00261304
909.0,0.797374,593.749,1954.86,1953.1,0.798217,0.000983709
912.0,0.79684,593.914,1959.54,1957.77,0.796901,-0.000333622
915.0,0.797236,594.079,1964.21,1962.44,0.796211,-0.00102495
918.0,0.797763,594.244,1968.88,1967.11,0.795905,-0.00133229
921.0,0.797588,594.409,1973.55,1971.77,0.79716,-7.86328e-05
924.0,0.795965,594.573,1978.21,1976.43,0.79716,-7.99795e-05
927.0,0.797683,594.738,1982.87,1981.09,0.797683,0.000441673
930.0,0.794621,594.903,1987.53,1985.75,0.796998,-0.00024467
933.0,0.79867,595.068,1992.19,1990.4,0.79867,0.00142599
936.0,0.79444,595.233,1996.84,1995.05,0.797536,0.000290653
939.0,0.80079,595.398,2001.49,1999.7,0.799275,0.00202831
942.0,0.796204,595.562,2006.14,2004.35,0.797513,0.000264982
945.0,0.79716,595.727,2010.79,2008.99,0.797345,9.56526e-05
948.0,0.798434,595.892,2015.43,2013.63,0.798434,0.00118332
951.0,0.79938,596.057,2020.07,2018.27,0.800827,0.003575
954.0,0.798429,596.222,2024.71,2022.91,0.798613,0.00135968
957.0,0.79674,596.387,2029.35,2027.54,0.79674,-0.000514625
960.0,0.797572,596.551,2033.98,2032.17,0.797572,0.000316063
963.0,0.797311,596.716,2038.61,2036.8,0.800392,0.00313475
966.0,0.797047,596.881,2043.24,2041.43,0.797143,-0.000115538
969.0,0.802703,597.046,2047.86,2046.05,0.798416,0.00115618
972.0,0.800507,597.211,2052.49,2050.67,0.800507,0.00324591
975.0,0.803833,597.376,2057.11,2055.29,0.800324,0.00306166
978.0,0.799625,597.541,2061.73,2059.91,0.799165,0.00190142
981.0,0.796031,597.705,2066.34,2064.52,0.799165,0.00190019
984.0,0.800865,597.87,2070.95,2069.13,0.800865,0.00359896
987.0,0.80088,598.035,2075.56,2073.74,0.80088,0.00361277
990.0,0.800092,598.2,2080.17,2078.34,0.798666,0.00139758
993.0,0.798952,598.365,2084.78,2082.95,0.798952,0.00168242
996.0,0.805457,598.53,2089.38,2087.55,0.800049,0.00277827
999.0,0.80597,598.694,2093.98,2092.15,0.800226,0.00295413
1002.0,0.800505,598.859,2098.58,2096.74,0.800226,0.00295301
1005.0,0.799398,599.024,2103.17,2101.33,0.799398,0.00212391
1008.0,0.804468,599.189,2107.77,2105.93,0.800363,0.00308783
1011.0,0.801745,599.354,2112.36,2110.51,0.800363,0.00308677
1014.0,0.799415,599.519,2116.94,2115.1,0.799415,0.00213775
1017.0,0.799168,599.683,2121.53,2119.68,0.79942,0.00214174
1020.0,0.802286,599.848,2126.11,2124.26,0.803566,0.00628675
1023.0,0.800814,600.013,2130.69,2128.84,0.802131,0.00485078
1026.0,0.799974,600.178,2135.27,2133.41,0.801054,0.00377283
1029.0,0.802515,600.343,2139.84,2137.99,0.801143,0.00386092
1032.0,0.803161,600.508,2144.42,2142.56,0.802638,0.00535504
1035.0,0.799294,600.672,2148.99,2147.13,0.802638,0.0053542
1038.0,0.799311,600.837,2153.55,2151.69,0.801434,0.00414939
1041.0,0.802002,601.002,2158.12,2156.25,0.802518,0.00523261
1044.0,0.812758,601.167,2162.68,2160.81,0.802518,0.00523186
1047.0,0.798511,601.332,2167.24,2165.37,0.80075,0.00346312
1050.0,0.801053,601.497,2171.8,2169.93,0.801053,0.00376539
1053.0,0.801889,601.662,2176.35,2174.48,0.801889,0.00460069
1056.0,0.801918,601.826,2180.9,2179.03,0.801918,0.00462902
1059.0,0.803124,601.991,2185.45,2183.58,0.802716,0.00542639
1062.0,0.80207,602.156,2190,2188.12,0.802686,0.0053958
1065.0,0.801074,602.321,2194.55,2192.67,0.802686,0.00539523
1068.0,0.804469,602.486,2199.09,2197.21,0.803754,0.0064627
1071.0,0.803314,602.651,2203.63,2201.74,0.803754,0.00646217
1074.0,0.804341,602.815,2208.17,2206.28,0.804341,0.00704866
1077.0,0.802193,602.98,2212.7,2210.81,0.802361,0.00506818
1080.0,0.803212,603.145,2217.23,2215.34,0.803212,0.00591872
1083.0,0.807295,603.31,2221.76,2219.87,0.807295,0.0100013
1086.0,0.802913,603.475,2226.29,2224.4,0.807826,0.0105319
1089.0,0.804823,603.64,2230.82,2228.92,0.804823,0.00752848
1092.0,0.804039,603.804,2235.34,2233.44,0.803386,0.00609109
1095.0,0.810217,603.969,2239.86,2237.96,0.803386,0.00609072
1098.0,0.80698,604.134,2244.38,2242.47,0.802489,0.00519338
1101.0,0.808696,604.299,2248.89,2246.99,0.804327,0.00703106
1104.0,0.803366,604.464,2253.41,2251.5,0.804327,0.00703075
1107.0,0.803318,604.629,2257.92,2256,0.803318,0.00602147
1110.0,0.802593,604.794,2262.42,2260.51,0.804363,0.00706622
1113.0,0.806038,604.958,2266.93,2265.01,0.806038,0.008741
1116.0,0.804097,605.123,2271.43,2269.51,0.805122,0.00782478
1119.0,0.808465,605.288,2275.93,2274.01,0.807986,0.0106886
1122.0,0.806089,605.453,2280.43,2278.51,0.804494,0.00719636
1125.0,0.806468,605.618,2284.93,2283,0.804494,0.00719616
1128.0,0.806927,605.783,2289.42,2287.49,0.805107,0.00780899
1131.0,0.806033,605.947,2293.91,2291.98,0.804537,0.00723883
1134.0,0.807957,606.112,2298.4,2296.47,0.804537,0.00723868
1137.0,0.809047,606.277,2302.88,2300.95,0.806463,0.00916453
1140.0,0.804081,606.442,2307.37,2305.43,0.806097,0.00879838
1143.0,0.803435,606.607,2311.85,2309.91,0.805778,0.00847923
1146.0,0.808722,606.772,2316.33,2314.39,0.807721,0.0104221
1149.0,0.804657,606.936,2320.8,2318.86,0.804657,0.00735797
1152.0,0.805571,607.101,2325.28,2323.33,0.80478,0.00748085
1155.0,0.811244,607.266,2329.75,2327.8,0.804812,0.00751274
1158.0,0.807638,607.431,2334.22,2332.27,0.805226,0.00792663
1161.0,0.806631,607.596,2338.68,2336.73,0.806159,0.00885952
1164.0,0.806396,607.761,2343.15,2341.19,0.805425,0.0081254
1167.0,0.812106,607.925,2347.61,2345.65,0.805425,0.00812529
1170.0,0.804715,608.09,2352.07,2350.11,0.804715,0.00741519
1173.0,0.808727,608.255,2356.52,2354.57,0.807285,0.0099851
1176.0,0.805456,608.42,2360.98,2359.02,0.806154,0.00885401
1179.0,0.804734,608.585,2365.43,2363.47,0.805827,0.00852691
1182.0,0.804546,608.75,2369.88,2367.91,0.805605,0.00830482
1185.0,0.803666,608.915,2374.33,2372.36,0.807764,0.0104637
1188.0,0.806632,609.079,2378.77,2376.8,0.806632,0.00933168
1191.0,0.806537,609.244,2383.21,2381.24,0.806145,0.00884462
1194.0,0.807304,609.409,2387.65,2385.68,0.807304,0.0100036
1197.0,0.806369,609.574,2392.09,2390.12,0.80809,0.0107895
1200.0,0.808819,609.739,2396.52,2394.55,0.80809,0.0107895
1203.0,0.806768,609.904,2400.96,2398.98,0.805515,0.0082144
1206.0,0.806549,610.068,2405.39,2403.41,0.806549,0.00924835
1209.0,0.806487,610.233,2409.82,2407.83,0.806184,0.00888329
1212.0,0.806974,610.398,2414.24,2412.26,0.806184,0.00888324
1215.0,0.806715,610.563,2418.66,2416.68,0.806555,0.00925421
1218.0,0.805291,610.728,2423.08,2421.1,0.805543,0.00824218
1221.0,0.809657,610.893,2427.5,2425.51,0.806334,0.00903316
1224.0,0.80651,611.057,2431.92,2429.93,0.806139,0.00883814
1227.0,0.807238,611.222,2436.33,2434.34,0.805503,0.00820212
1230.0,0.806082,611.387,2440.74,2438.75,0.805503,0.0082021
1233.0,0.807203,611.552,2445.15,2443.15,0.806989,0.00968809
1236.0,0.804656,611.717,2449.56,2447.56,0.806342,0.00904109
1239.0,0.807548,611.882,2453.96,2451.96,0.806809,0.00950809
1242.0,0.808661,612.046,2458.36,2456.36,0.806809,0.00950809
1245.0,0.810489,612.211,2462.76,2460.75,0.805428,0.00812709
1248.0,0.806529,612.376,2467.16,2465.15,0.808298,0.0109971
1251.0,0.806711,612.541,2471.55,2469.54,0.806711,0.00941009
1254.0,0.805971,612.706,2475.95,2473.93,0.805971,0.00867009
1257.0,0.808463,612.871,2480.34,2478.32,0.807922,0.0106211
1260.0,0.807763,613.036,2484.72,2482.71,0.807763,0.0104621
1263.0,0.804338,613.2,2489.11,2487.09,0.805445,0.00814409
1266.0,0.807717,613.365,2493.49,2491.47,0.807717,0.0104161
1269.0,0.8076,613.53,2497.87,2495.85,0.8076,0.0102991
1272.0,0.807488,613.695,2502.25,2500.22,0.807488,0.0101871
1275.0,0.810892,613.86,2506.63,2504.6,0.806408,0.00910709
1278.0,0.805584,614.025,2511,2508.97,0.806303,0.00900209
1281.0,0.805338,614.189,2515.37,2513.34,0.805785,0.00848409
1284.0,0.806572,614.354,2519.74,2517.7,0.805951,0.00865009
1287.0,0.822535,614.519,2524.1,2522.07,0.808352,0.0110511
1290.0,0.807728,614.684,2528.47,2526.43,0.807728,0.0104271
1293.0,0.809811,614.849,2532.83,2530.79,0.808171,0.0108701
1296.0,0.809703,615.014,2537.19,2535.15,0.808241,0.0109401
1299.0,0.808576,615.178,2541.55,2539.5,0.807875,0.0105741
1302.0,0.809375,615.343,2545.9,2543.85,0.807875,0.0105741
1305.0,0.808761,615.508,2550.25,2548.2,0.807901,0.0106001
1308.0,0.806194,615.673,2554.6,2552.55,0.807769,0.0104681
1311.0,0.80753,615.838,2558.95,2556.9,0.808263,0.0109621
1314.0,0.807569,616.003,2563.3,2561.24,0.808263,0.0109621
1317.0,0.808542,616.167,2567.64,2565.58,0.808502,0.0112011
1320.0,0.812792,616.332,2571.98,2569.92,0.808565,0.0112641
1323.0,0.821409,616.497,2576.32,2574.26,0.807604,0.0103031
1326.0,0.809745,616.662,2580.65,2578.59,0.807729,0.0104281
1329.0,0.808525,616.827,2584.99,2582.92,0.807803,0.0105021
1332.0,0.807949,616.992,2589.32,2587.25,0.807662,0.0103611
1335.0,0.810961,617.157,2593.65,2591.58,0.805937,0.00863609
1338.0,0.810242,617.321,2597.97,2595.9,0.8086,0.0112991
1341.0,0.808009,617.486,2602.3,2600.22,0.8086,0.0112991
1344.0,0.808827,617.651,2606.62,2604.54,0.808827,0.0115261
1347.0,0.810441,617.816,2610.94,2608.86,0.809505,0.0122041
1350.0,0.815277,617.981,2615.26,2613.18,0.809439,0.0121381
1353.0,0.807984,618.146,2619.57,2617.49,0.807984,0.0106831
1356.0,0.808701,618.31,2623.89,2621.8,0.808701,0.0114001
1359.0,0.808186,618.475,2628.2,2626.11,0.809054,0.0117531
1362.0,0.809708,618.64,2632.5,2630.42,0.809585,0.0122841
1365.0,0.806989,618.805,2636.81,2634.72,0.807989,0.0106881
1368.0,0.807834,618.97,2641.11,2639.02,0.807834,0.0105331
1371.0,0.807606,619.135,2645.42,2643.32,0.807606,0.0103051
1374.0,0.807243,619.299,2649.71,2647.62,0.808667,0.0113661
1377.0,0.80887,619.464,2654.01,2651.91,0.809163,0.0118621
1380.0,0.812036,619.629,2658.31,2656.21,0.810416,0.0131151
1383.0,0.807059,619.794,2662.6,2660.5,0.807059,0.00975809
1386.0,0.810543,619.959,2666.89,2664.78,0.810462,0.0131611
1389.0,0.81119,620.124,2671.18,2669.07,0.81119,0.0138891
1392.0,0.820023,620.288,2675.46,2673.35,0.808413,0.0111121
1395.0,0.811373,620.453,2679.74,2677.63,0.810004,0.0127031
1398.0,0.807488,620.618,2684.03,2681.91,0.809724,0.0124231
1401.0,0.808475,620.783,2688.3,2686.19,0.808475,0.0111741
1404.0,0.806493,620.948,2692.58,2690.46,0.80833,0.0110291
1407.0,0.806037,621.113,2696.85,2694.74,0.808919,0.0116181
1410.0,0.810512,621.278,2701.13,2699.01,0.809731,0.0124301
1413.0,0.80924,621.442,2705.4,2703.27,0.80924,0.0119391
1416.0,0.80983,621.607,2709.66,2707.54,0.80983,0.0125291
1419.0,0.810985,621.772,2713.93,2711.8,0.81061,0.0133091
1422.0,0.816131,621.937,2718.19,2716.06,0.809973,0.0126721
1425.0,0.808454,622.102,2722.45,2720.32,0.808785,0.0114841
1428.0,0.818758,622.267,2726.71,2724.58,0.810783,0.0134821
1431.0,0.808978,622.431,2730.96,2728.83,0.810754,0.0134531
1434.0,0.812803,622.596,2735.22,2733.08,0.810754,0.0134531
1437.0,0.813052,622.761,2739.47,2737.33,0.810147,0.0128461
1440.0,0.809347,622.926,2743.72,2741.58,0.811637,0.0143361
1443.0,0.811718,623.091,2747.97,2745.82,0.811718,0.0144171
1446.0,0.812342,623.256,2752.21,2750.07,0.812342,0.0150411
1449.0,0.808612,623.42,2756.45,2754.31,0.810157,0.0128561
1452.0,0.809417,623.585,2760.69,2758.55,0.809717,0.0124161
1455.0,0.810987,623.75,2764.93,2762.78,0.810497,0.0131961
1458.0,0.807208,623.915,2769.17,2767.01,0.810497,0.0131961
1461.0,0.822563,624.08,2773.4,2771.25,0.811128,0.0138271
1464.0,0.809979,624.245,2777.63,2775.48,0.811066,0.0137651
1467.0,0.808976,624.409,2781.86,2779.7,0.80978,0.0124791
1470.0,0.806517,624.574,2786.09,2783.93,0.8101,0.0127991
1473.0,0.809489,624.739,2790.31,2788.15,0.810404,0.0131031
1476.0,0.810169,624.904,2794.53,2792.37,0.810251,0.0129501
1479.0,0.812413,625.069,2798.75,2796.59,0.811658,0.0143571
1482.0,0.809251,625.234,2802.97,2800.8,0.810491,0.0131901
1485.0,0.811397,625.399,2807.19,2805.02,0.810934,0.0136331
1488.0,0.807795,625.563,2811.4,2809.23,0.810934,0.0136331
1491.0,0.810469,625.728,2815.61,2813.44,0.812233,0.0149321
1494.0,0.809674,625.893,2819.82,2817.65,0.810455,0.0131541
1497.0,0.809303,626.058,2824.03,2821.85,0.810455,0.0131541
1500.0,0.807408,626.223,2828.23,2826.05,0.810254,0.0129531
1503.0,0.810944,626.388,2832.44,2830.25,0.810254,0.0129531
1506.0,0.812528,626.552,2836.64,2834.45,0.812528,0.0152271
1509.0,0.808949,626.717,2840.83,2838.65,0.811683,0.0143821
1512.0,0.811755,626.882,2845.03,2842.84,0.811683,0.0143821
1515.0,0.824398,627.047,2849.22,2847.03,0.812404,0.0151031
1518.0,0.809031,627.212,2853.41,2851.22,0.810067,0.0127661
1521.0,0.811816,627.377,2857.6,2855.41,0.811175,0.0138741
1524.0,0.81305,627.541,2861.79,2859.59,0.811175,0.0138741
1527.0,0.811411,627.706,2865.97,2863.78,0.811411,0.0141101
1530.0,0.812026,627.871,2870.16,2867.96,0.812884,0.0155831
1533.0,0.813149,628.036,2874.34,2872.14,0.811616,0.0143151
1536.0,0.811096,628.201,2878.52,2876.31,0.811096,0.0137951
1539.0,0.812449,628.366,2882.69,2880.49,0.811958,0.0146571
1542.0,0.810944,628.53,2886.87,2884.66,0.814668,0.0173671
1545.0,0.81912,628.695,2891.04,2888.83,0.814668,0.0173671
1548.0,0.812329,628.86,2895.21,2892.99,0.812064,0.0147631
1551.0,0.812782,629.025,2899.37,2897.16,0.811846,0.0145451
1554.0,0.811633,629.19,2903.54,2901.32,0.811633,0.0143321
1557.0,0.812647,629.355,2907.7,2905.48,0.813807,0.0165061
1560.0,0.812265,629.52,2911.86,2909.64,0.813807,0.0165061
1563.0,0.812838,629.684,2916.02,2913.8,0.812842,0.0155411
1566.0,0.813209,629.849,2920.18,2917.95,0.813209,0.0159081
1569.0,0.810819,630.014,2924.33,2922.1,0.813068,0.0157671
1572.0,0.812895,630.179,2928.48,2926.25,0.817362,0.0200611
1575.0,0.815269,630.344,2932.63,2930.4,0.815269,0.0179681
1578.0,0.813756,630.509,2936.78,2934.55,0.814654,0.0173531
1581.0,0.815707,630.673,2940.93,2938.69,0.815707,0.0184061
1584.0,0.815608,630.838,2945.07,2942.83,0.816443,0.0191421
1587.0,0.816048,631.003,2949.21,2946.97,0.816639,0.0193381
1590.0,0.814598,631.168,2953.35,2951.11,0.816059,0.0187581
1593.0,0.816712,631.333,2957.49,2955.24,0.816059,0.0187581
1596.0,0.828168,631.498,2961.62,2959.38,0.819636,0.0223351
1599.0,0.815204,631.662,2965.75,2963.51,0.816612,0.0193111
1602.0,0.817122,631.827,2969.88,2967.64,0.816612,0.0193111
1605.0,0.818134,631.992,2974.01,2971.76,0.816823,0.0195221
1608.0,0.815161,632.157,2978.14,2975.89,0.816791,0.0194901
1611.0,0.814284,632.322,2982.26,2980.01,0.816134,0.0188331
1614.0,0.816755,632.487,2986.38,2984.13,0.816755,0.0194541
1617.0,0.816562,632.651,2990.5,2988.24,0.817376,0.0200751
1620.0,0.816174,632.816,2994.62,2992.36,0.81693,0.0196291
1623.0,0.815737,632.981,2998.73,2996.47,0.817832,0.0205311
1626.0,0.820562,633.146,3002.85,3000.58,0.819634,0.0223331
1629.0,0.819095,633.311,3006.96,3004.69,0.81952,0.0222191
1632.0,0.821293,633.476,3011.07,3008.8,0.821196,0.0238951
1635.0,0.818329,633.641,3015.17,3012.91,0.819562,0.0222611
1638.0,0.8189,633.805,3019.28,3017.01,0.818855,0.0215541
1641.0,0.819662,633.97,3023.38,3021.11,0.818976,0.0216751
1644.0,0.820557,634.135,3027.48,3025.21,0.819534,0.0222331
1647.0,0.820205,634.3,3031.58,3029.3,0.819534,0.0222331
1650.0,0.82146,634.465,3035.68,3033.4,0.82146,0.0241591
1653.0,0.821846,634.63,3039.77,3037.49,0.821152,0.0238511
1656.0,0.821852,634.794,3043.86,3041.58,0.821152,0.0238511
1659.0,0.820992,634.959,3047.95,3045.67,0.820995,0.0236941
1662.0,0.822956,635.124,3052.04,3049.75,0.822956,0.0256551
1665.0,0.822242,635.289,3056.12,3053.84,0.822242,0.0249411
1668.0,0.822013,635.454,3060.21,3057.92,0.821806,0.0245051
1671.0,0.821605,635.619,3064.29,3062,0.821639,0.0243381
1674.0,0.828377,635.783,3068.37,3066.07,0.82256,0.0252591
1677.0,0.820298,635.948,3072.44,3070.15,0.82141,0.0241091
1680.0,0.821902,636.113,3076.52,3074.22,0.821599,0.0242981
1683.0,0.821173,636.278,3080.59,3078.29,0.82138,0.0240791
1686.0,0.822141,636.443,3084.66,3082.36,0.821478,0.0241771
1689.0,0.822419,636.608,3088.73,3086.43,0.822419,0.0251181
1692.0,0.822908,636.772,3092.8,3090.49,0.822882,0.0255811
1695.0,0.822242,636.937,3096.86,3094.55,0.822,0.0246991
1698.0,0.826131,637.102,3100.92,3098.61,0.826131,0.0288301
1701.0,0.822983,637.267,3104.98,3102.67,0.82437,0.0270691
1704.0,0.820464,637.432,3109.04,3106.73,0.824861,0.0275601
1707.0,0.825221,637.597,3113.1,3110.78,0.825221,0.0279201
1710.0,0.82516,637.762,3117.15,3114.83,0.82516,0.0278591
1713.0,0.822216,637.926,3121.2,3118.88,0.824552,0.0272511
1716.0,0.824455,638.091,3125.25,3122.93,0.824759,0.0274581
1719.0,0.826025,638.256,3129.3,3126.98,0.825455,0.0281541
1722.0,0.828977,638.421,3133.34,3131.02,0.825113,0.0278121
1725.0,0.826179,638.586,3137.39,3135.06,0.824727,0.0274261
1728.0,0.826093,638.751,3141.43,3139.1,0.826093,0.0287921
1731.0,0.825935,638.915,3145.47,3143.14,0.826586,0.0292851
1734.0,0.825145,639.08,3149.51,3147.17,0.827408,0.0301071
1737.0,0.830785,639.245,3153.54,3151.21,0.827837,0.0305361
1740.0,0.830702,639.41,3157.57,3155.24,0.827431,0.0301301
1743.0,0.827862,639.575,3161.6,3159.27,0.827862,0.0305611
1746.0,0.829475,639.74,3165.63,3163.29,0.829475,0.0321741
1749.0,0.832496,639.904,3169.66,3167.32,0.830243,0.0329421
1752.0,0.830438,640.069,3173.68,3171.34,0.830202,0.0329011
1755.0,0.829079,640.234,3177.71,3175.36,0.830202,0.0329011
1758.0,0.830723,640.399,3181.73,3179.38,0.832395,0.0350941
1761.0,0.830668,640.564,3185.75,3183.4,0.830964,0.0336631
1764.0,0.832128,640.729,3189.76,3187.41,0.832128,0.0348271
1767.0,0.833748,640.893,3193.78,3191.42,0.835476,0.0381751
1770.0,0.833056,641.058,3197.79,3195.43,0.834822,0.0375211
1773.0,0.836808,641.223,3201.8,3199.44,0.835249,0.0379481
1776.0,0.836909,641.388,3205.81,3203.45,0.835667,0.0383661
1779.0,0.836295,641.553,3209.81,3207.45,0.838729,0.0414281
1782.0,0.839137,641.718,3213.82,3211.45,0.839788,0.0424871
1785.0,0.840365,641.883,3217.82,3215.45,0.840365,0.0430641
1788.0,0.84176,642.047,3221.82,3219.45,0.841112,0.0438111
1791.0,0.842345,642.212,3225.82,3223.45,0.841953,0.0446521
1794.0,0.844177,642.377,3229.81,3227.44,0.843364,0.0460631
1797.0,0.842701,642.542,3233.81,3231.43,0.843586,0.0462851
1800.0,0.844535,642.707,3237.8,3235.42,0.845653,0.0483521
1803.0,0.847406,642.872,3241.79,3239.41,0.847406,0.0501051
1806.0,0.851345,643.036,3245.77,3243.4,0.848641,0.0513401
1809.0,0.858854,643.201,3249.76,3247.38,0.849769,0.0524681
1812.0,0.849231,643.366,3253.74,3251.36,0.849231,0.0519301
1815.0,0.850736,643.531,3257.72,3255.34,0.852254,0.0549531
1818.0,0.849438,643.696,3261.7,3259.32,0.854221,0.0569201
1821.0,0.852562,643.861,3265.68,3263.29,0.852943,0.0556421
1824.0,0.854649,644.025,3269.66,3267.27,0.854649,0.0573481
1827.0,0.853633,644.19,3273.63,3271.24,0.855091,0.0577901
1830.0,0.858551,644.355,3277.6,3275.21,0.855091,0.0577901
1833.0,0.855384,644.52,3281.57,3279.18,0.854719,0.0574181
1836.0,0.85606,644.685,3285.54,3283.14,0.85606,0.0587591
1839.0,0.858569,644.85,3289.5,3287.1,0.85682,0.0595191
1842.0,0.856644,645.015,3293.47,3291.07,0.85682,0.0595191
1845.0,0.85727,645.179,3297.43,3295.02,0.858585,0.0612841
1848.0,0.862113,645.344,3301.39,3298.98,0.859903,0.0626021
1851.0,0.858715,645.509,3305.34,3302.94,0.858866,0.0615651
1854.0,0.864073,645.674,3309.3,3306.89,0.858866,0.0615651
1857.0,0.858613,645.839,3313.25,3310.84,0.859933,0.0626321
1860.0,0.86305,646.004,3317.2,3314.79,0.861611,0.0643101
1863.0,0.86221,646.168,3321.15,3318.74,0.8635,0.0661991
1866.0,0.861194,646.333,3325.1,3322.68,0.862443,0.0651421
1869.0,0.861769,646.498,3329.04,3326.63,0.862443,0.0651421
1872.0,0.86431,646.663,3332.98,3330.57,0.863452,0.0661511
1875.0,0.866519,646.828,3336.93,3334.51,0.862433,0.0651321
1878.0,0.866329,646.993,3340.86,3338.44,0.864285,0.0669841
1881.0,0.86277,647.157,3344.8,3342.38,0.864285,0.0669841
1884.0,0.861152,647.322,3348.74,3346.31,0.863168,0.0658671
1887.0,0.866876,647.487,3352.67,3350.24,0.865112,0.0678111
1890.0,0.864038,647.652,3356.6,3354.17,0.865112,0.0678111
1893.0,0.863109,647.817,3360.53,3358.1,0.863413,0.0661121
1896.0,0.867715,647.982,3364.46,3362.02,0.863903,0.0666021
1899.0,0.861441,648.146,3368.38,3365.95,0.862983,0.0656821
1902.0,0.86089,648.311,3372.3,3369.87,0.862528,0.0652271
1905.0,0.862084,648.476,3376.22,3373.79,0.862458,0.0651571
1908.0,0.864261,648.641,3380.14,3377.7,0.862458,0.0651571
1911.0,0.863232,648.806,3384.06,3381.62,0.862049,0.0647481
1914.0,0.859669,648.971,3387.98,3385.53,0.862049,0.0647481
1917.0,0.862426,649.136,3391.89,3389.44,0.862517,0.0652161
1920.0,0.862719,649.3,3395.8,3393.35,0.862719,0.0654181
1923.0,0.860426,649.465,3399.71,3397.26,0.862334,0.0650331
1926.0,0.860268,649.63,3403.62,3401.16,0.862334,0.0650331
1929.0,0.864418,649.795,3407.52,3405.07,0.862956,0.0656551
1932.0,0.867667,649.96,3411.42,3408.97,0.863313,0.0660121
1935.0,0.863333,650.125,3415.32,3412.87,0.862803,0.0655021
1938.0,0.86639,650.289,3419.22,3416.76,0.862803,0.0655021
1941.0,0.864293,650.454,3423.12,3420.66,0.863731,0.0664301
1944.0,0.869594,650.619,3427.02,3424.55,0.864944,0.0676431
1947.0,0.864096,650.784,3430.91,3428.44,0.865931,0.0686301
1950.0,0.866042,650.949,3434.8,3432.33,0.867697,0.0703961
1953.0,0.869871,651.114,3438.69,3436.22,0.870444,0.0731431
1956.0,0.870173,651.278,3442.58,3440.11,0.870691,0.0733901
1959.0,0.870665,651.443,3446.46,3443.99,0.873521,0.0762201
1962.0,0.8741,651.608,3450.34,3447.87,0.874579,0.0772781
1965.0,0.877887,651.773,3454.23,3451.75,0.877887,0.0805861
1968.0,0.887019,651.938,3458.11,3455.63,0.882022,0.0847211
1971.0,0.880505,652.103,3461.98,3459.5,0.882022,0.0847211
1974.0,0.880878,652.267,3465.86,3463.38,0.880968,0.0836671
1977.0,0.879315,652.432,3469.73,3467.25,0.879915,0.0826141
1980.0,0.881041,652.597,3473.6,3471.12,0.879915,0.0826141
1983.0,0.87602,652.762,3477.47,3474.99,0.875542,0.0782411
1986.0,0.871651,652.927,3481.34,3478.85,0.871651,0.0743501
1989.0,0.869215,653.092,3485.21,3482.72,0.870597,0.0732961
1992.0,0.867394,653.257,3489.07,3486.58,0.869338,0.0720371
1995.0,0.865267,653.421,3492.93,3490.44,0.86687,0.0695691
1998.0,0.861119,653.586,3496.79,3494.3,0.861904,0.0646031
2001.0,0.860567,653.751,3500.65,3498.15,0.859263,0.0619621
2004.0,0.857479,653.916,3504.51,3502.01,0.857479,0.0601781
2007.0,0.854837,654.081,3508.36,3505.86,0.85749,0.0601891
2010.0,0.852664,654.246,3512.21,3509.71,0.8531,0.0557991
2013.0,0.852634,654.41,3516.06,3513.56,0.852634,0.0553331
2016.0,0.848562,654.575,3519.91,3517.4,0.848562,0.0512611
2019.0,0.848076,654.74,3523.76,3521.25,0.847568,0.0502671
2022.0,0.843516,654.905,3527.6,3525.09,0.844594,0.0472931
2025.0,0.841777,655.07,3531.44,3528.93,0.842584,0.0452831
2028.0,0.838944,655.235,3535.28,3532.77,0.83914,0.0418391
2031.0,0.838035,655.399,3539.12,3536.61,0.838233,0.0409321
2034.0,0.836979,655.564,3542.96,3540.44,0.836979,0.0396781
2037.0,0.832788,655.729,3546.79,3544.27,0.832788,0.0354871
2040.0,0.833736,655.894,3550.63,3548.1,0.832439,0.0351381
2043.0,0.833984,656.059,3554.46,3551.93,0.832439,0.0351381
2046.0,0.829299,656.224,3558.28,3555.76,0.829299,0.0319981
2047.0,0.829967,656.279,3559.56,3557.04,0.829299,0.0319981