File: data/processed/processed_data/2024-10-11/2024-10-11_citricacidpowder_n_n_n_solid_10000_0_5.csv
Pixels #,Intensity (a.u.),Wavelength (nm),Raman shift (cm-1),Raman shift (cm-1) adjusted,Filtered Intensity (a.u.),Baselined Filtered Intensity (a.u.)
0.0,0.844819,543.803,407.968,406.929,0.844365,-0.0165273
3.0,0.843233,543.967,413.541,412.499,0.844365,-0.0165274
6.0,0.843641,544.132,419.11,418.065,0.845201,-0.0156916
9.0,0.847532,544.297,424.676,423.628,0.846514,-0.014379
12.0,0.850428,544.462,430.238,429.188,0.844825,-0.0160685
15.0,0.848944,544.627,435.797,434.744,0.844641,-0.0162531
18.0,0.848301,544.792,441.353,440.297,0.843438,-0.0174569
21.0,0.846706,544.957,446.905,445.847,0.843986,-0.0169098
24.0,0.842916,545.121,452.454,451.393,0.843327,-0.0175698
27.0,0.843781,545.286,457.999,456.936,0.843327,-0.017571
30.0,0.843496,545.451,463.542,462.476,0.844002,-0.0168974
33.0,0.845624,545.616,469.08,468.012,0.845624,-0.0152769
36.0,0.845258,545.781,474.616,473.545,0.84518,-0.0157225
39.0,0.87367,545.946,480.148,479.075,0.84518,-0.0157243
42.0,0.841547,546.11,485.677,484.601,0.843968,-0.0169381
45.0,0.845431,546.275,491.202,490.124,0.84462,-0.0162881
48.0,0.849521,546.44,496.725,495.643,0.848516,-0.0123943
51.0,0.849671,546.605,502.243,501.16,0.849671,-0.0112415
54.0,0.864055,546.77,507.759,506.672,0.852776,-0.00813883
57.0,0.854435,546.935,513.271,512.182,0.852904,-0.00801321
60.0,0.85838,547.099,518.78,517.688,0.853904,-0.00701564
63.0,0.85187,547.264,524.285,523.191,0.855356,-0.00556613
66.0,0.856407,547.429,529.788,528.691,0.856407,-0.00451767
69.0,0.859626,547.594,535.287,534.187,0.859626,-0.00130125
72.0,0.86067,547.759,540.782,539.68,0.860645,-0.000284838
75.0,0.858585,547.924,546.275,545.17,0.860302,-0.000630418
78.0,0.862879,548.088,551.763,550.656,0.858846,-0.00208901
81.0,0.860287,548.253,557.249,556.139,0.858709,-0.00222861
84.0,0.856151,548.418,562.732,561.619,0.85809,-0.00285023
87.0,0.854595,548.583,568.211,567.096,0.857331,-0.00361186
90.0,0.856346,548.748,573.686,572.569,0.856346,-0.0045995
93.0,0.855404,548.913,579.159,578.039,0.856048,-0.00490017
96.0,0.857348,549.078,584.628,583.506,0.856678,-0.00427288
99.0,0.854267,549.242,590.094,588.969,0.856781,-0.00417262
102.0,0.857343,549.407,595.557,594.429,0.856986,-0.00397041
105.0,0.857618,549.572,601.016,599.886,0.857618,-0.00334122
108.0,0.857683,549.737,606.472,605.339,0.856656,-0.00430605
111.0,0.854994,549.902,611.925,610.79,0.854962,-0.00600292
114.0,0.852428,550.067,617.375,616.237,0.854791,-0.00617684
117.0,0.85338,550.231,622.821,621.68,0.854791,-0.00617981
120.0,0.854799,550.396,628.264,627.121,0.854799,-0.00617485
123.0,0.852145,550.561,633.704,632.558,0.853665,-0.00731193
126.0,0.851315,550.726,639.14,637.992,0.855083,-0.00589708
129.0,0.852515,550.891,644.574,643.423,0.853859,-0.00712428
132.0,0.854998,551.056,650.004,648.85,0.853509,-0.00747756
135.0,0.852813,551.22,655.431,654.274,0.851907,-0.0090829
138.0,0.850598,551.385,660.854,659.695,0.852208,-0.00878532
141.0,0.852959,551.55,666.274,665.113,0.853695,-0.00730181
144.0,0.854753,551.715,671.691,670.528,0.854753,-0.00624737
147.0,0.854063,551.88,677.105,675.939,0.855132,-0.00587198
150.0,0.855207,552.045,682.516,681.347,0.855207,-0.00580064
153.0,0.854126,552.209,687.923,686.752,0.855048,-0.00596333
156.0,0.854413,552.374,693.327,692.153,0.854413,-0.00660207
159.0,0.862932,552.539,698.728,697.552,0.854641,-0.00637787
162.0,0.854382,552.704,704.126,702.947,0.854382,-0.0066407
165.0,0.852197,552.869,709.52,708.339,0.854748,-0.00627859
168.0,0.855779,553.034,714.912,713.727,0.855779,-0.00525154
171.0,0.855188,553.199,720.3,719.113,0.857098,-0.00393655
174.0,0.856898,553.363,725.684,724.495,0.857429,-0.00360959
177.0,0.854682,553.528,731.066,729.874,0.855218,-0.00582467
180.0,0.85803,553.693,736.444,735.25,0.85803,-0.00301679
183.0,0.859879,553.858,741.82,740.623,0.860931,-0.000119938
186.0,0.860054,554.023,747.192,745.992,0.86336,0.00230492
189.0,0.861689,554.188,752.561,751.359,0.861689,0.000629806
192.0,0.863594,554.352,757.926,756.722,0.861683,0.000619701
195.0,0.865762,554.517,763.289,762.082,0.864718,0.00365061
198.0,0.8674,554.682,768.648,767.438,0.869803,0.00873154
201.0,0.885205,554.847,774.004,772.792,0.885205,0.0241295
204.0,0.89772,555.012,779.357,778.142,0.89772,0.0366405
207.0,0.895242,555.177,784.706,783.489,0.895242,0.0341586
210.0,0.889705,555.341,790.053,788.833,0.891413,0.0303256
213.0,0.884255,555.506,795.396,794.174,0.884255,0.0231636
216.0,0.883855,555.671,800.737,799.512,0.883855,0.0227596
219.0,0.881472,555.836,806.074,804.846,0.885122,0.0240226
222.0,0.884583,556.001,811.407,810.178,0.885122,0.0240186
225.0,0.889409,556.166,816.738,815.506,0.889409,0.0283016
228.0,0.889572,556.33,822.066,820.831,0.890937,0.0298256
231.0,0.894954,556.495,827.39,826.153,0.894954,0.0338386
234.0,0.89708,556.66,832.711,831.472,0.897218,0.0360986
237.0,0.898872,556.825,838.029,836.787,0.900891,0.0397676
240.0,0.899026,556.99,843.344,842.1,0.903035,0.0419076
243.0,0.907293,557.155,848.656,847.409,0.907293,0.0461616
246.0,0.909715,557.32,853.965,852.715,0.910127,0.0489916
249.0,0.925667,557.484,859.27,858.018,0.913251,0.0521116
252.0,0.913336,557.649,864.572,863.318,0.914231,0.0530876
255.0,0.916446,557.814,869.872,868.615,0.916446,0.0552986
258.0,0.917502,557.979,875.168,873.908,0.91907,0.0579186
261.0,0.923637,558.144,880.461,879.199,0.922955,0.0617996
264.0,0.922487,558.309,885.751,884.486,0.922596,0.0614366
267.0,0.929616,558.473,891.037,889.77,0.929246,0.0680826
270.0,0.934395,558.638,896.321,895.051,0.934395,0.0732277
273.0,0.942953,558.803,901.601,900.329,0.936461,0.0752897
276.0,0.934236,558.968,906.879,905.604,0.932725,0.0715497
279.0,0.928905,559.133,912.153,910.876,0.928905,0.0677257
282.0,0.926533,559.298,917.424,916.145,0.926973,0.0657897
285.0,0.931131,559.462,922.692,921.41,0.931131,0.0699437
288.0,0.93682,559.627,927.957,926.673,0.93682,0.0756287
291.0,0.953938,559.792,933.219,931.932,0.960777,0.0995817
294.0,0.964794,559.957,938.478,937.188,0.961319,0.10012
297.0,0.960442,560.122,943.733,942.441,0.960442,0.0992387
300.0,0.945989,560.287,948.986,947.691,0.957317,0.0961097
303.0,0.934847,560.452,954.235,952.938,0.934847,0.0736357
306.0,0.927433,560.616,959.482,958.182,0.927938,0.0667227
309.0,0.927114,560.781,964.725,963.423,0.927114,0.0658947
312.0,0.921269,560.946,969.965,968.661,0.921269,0.0600457
315.0,0.917583,561.111,975.202,973.896,0.922033,0.0608057
318.0,0.920618,561.276,980.436,979.127,0.920618,0.0593867
321.0,0.91791,561.441,985.667,984.356,0.91895,0.0577147
324.0,0.916977,561.605,990.895,989.581,0.918755,0.0575157
327.0,0.918346,561.77,996.12,994.803,0.918346,0.0571027
330.0,0.919113,561.935,1001.34,1000.02,0.917567,0.0563198
333.0,0.916316,562.1,1006.56,1005.24,0.917347,0.0560958
336.0,0.918966,562.265,1011.78,1010.45,0.918966,0.0577108
339.0,0.921631,562.43,1016.99,1015.66,0.921311,0.0600518
342.0,0.918023,562.594,1022.2,1020.87,0.920496,0.0592328
345.0,0.92154,562.759,1027.4,1026.07,0.921133,0.0598658
348.0,0.92011,562.924,1032.61,1031.27,0.922366,0.0610948
351.0,0.926593,563.089,1037.81,1036.47,0.924463,0.0631878
354.0,0.926737,563.254,1043.01,1041.67,0.926737,0.0654578
357.0,0.93178,563.419,1048.2,1046.86,0.93178,0.0704968
360.0,0.93171,563.583,1053.39,1052.05,0.933497,0.0722098
363.0,0.935073,563.748,1058.58,1057.23,0.931884,0.0705928
366.0,0.930692,563.913,1063.77,1062.42,0.929718,0.0684228
369.0,0.930025,564.078,1068.95,1067.6,0.929718,0.0684188
372.0,0.93218,564.243,1074.13,1072.77,0.93218,0.0708768
375.0,0.93157,564.408,1079.3,1077.95,0.931816,0.0705088
378.0,0.93748,564.573,1084.48,1083.12,0.929337,0.0680258
381.0,0.929685,564.737,1089.65,1088.28,0.928013,0.0666978
384.0,0.923448,564.902,1094.81,1093.45,0.927125,0.0658058
387.0,0.921921,565.067,1099.98,1098.61,0.923204,0.0618808
390.0,0.92243,565.232,1105.14,1103.77,0.92243,0.0611029
393.0,0.919958,565.397,1110.3,1108.93,0.919958,0.0586269
396.0,0.921955,565.562,1115.45,1114.08,0.918633,0.0572979
399.0,0.922923,565.726,1120.6,1119.23,0.920786,0.0594469
402.0,0.921002,565.891,1125.75,1124.37,0.922842,0.0614989
405.0,0.939725,566.056,1130.9,1129.52,0.926066,0.0647189
408.0,0.931883,566.221,1136.04,1134.66,0.928673,0.0673219
411.0,0.930344,566.386,1141.18,1139.8,0.931308,0.0699529
414.0,0.92772,566.551,1146.32,1144.93,0.92772,0.0663609
417.0,0.929498,566.715,1151.45,1150.06,0.924747,0.0633839
420.0,0.924684,566.88,1156.58,1155.19,0.924747,0.0633799
423.0,0.923883,567.045,1161.71,1160.32,0.923883,0.0625119
426.0,0.925938,567.21,1166.84,1165.44,0.923284,0.0619089
429.0,0.922315,567.375,1171.96,1170.56,0.923284,0.0619049
432.0,0.9257,567.54,1177.08,1175.68,0.9257,0.0643169
435.0,0.926213,567.704,1182.19,1180.79,0.926669,0.0652819
438.0,0.92596,567.869,1187.31,1185.9,0.926669,0.0652779
441.0,0.93173,568.034,1192.42,1191.01,0.929991,0.0685959
444.0,0.934835,568.199,1197.52,1196.11,0.933576,0.0721769
447.0,0.940897,568.364,1202.63,1201.21,0.939643,0.0782399
450.0,0.944184,568.529,1207.73,1206.31,0.942375,0.080968
453.0,0.951326,568.694,1212.83,1211.41,0.942375,0.080964
456.0,0.942431,568.858,1217.92,1216.5,0.942345,0.08093
459.0,0.9391,569.023,1223.02,1221.59,0.9391,0.077681
462.0,0.932938,569.188,1228.11,1226.68,0.932938,0.071515
465.0,0.927778,569.353,1233.19,1231.76,0.927778,0.066351
468.0,0.924515,569.518,1238.28,1236.85,0.925024,0.063593
471.0,0.923633,569.683,1243.36,1241.92,0.923633,0.062198
474.0,0.923304,569.847,1248.43,1247,0.920822,0.059383
477.0,0.921211,570.012,1253.51,1252.07,0.921031,0.059588
480.0,0.918824,570.177,1258.58,1257.14,0.921031,0.059584
483.0,0.922392,570.342,1263.65,1262.21,0.921925,0.060474
486.0,0.922851,570.507,1268.72,1267.27,0.921098,0.059643
489.0,0.921595,570.672,1273.78,1272.33,0.920281,0.058822
492.0,0.919975,570.836,1278.84,1277.39,0.920281,0.058818
495.0,0.925626,571.001,1283.9,1282.44,0.924148,0.062681
498.0,0.92264,571.166,1288.95,1287.5,0.92264,0.061169
501.0,0.925106,571.331,1294,1292.55,0.923498,0.062023
504.0,0.921208,571.496,1299.05,1297.59,0.921688,0.060209
507.0,0.920702,571.661,1304.1,1302.63,0.921688,0.060205
510.0,0.920897,571.825,1309.14,1307.67,0.922723,0.0612361
513.0,0.924408,571.99,1314.18,1312.71,0.924045,0.0625541
516.0,0.920699,572.155,1319.22,1317.75,0.923244,0.0617491
519.0,0.926888,572.32,1324.25,1322.78,0.926888,0.0653891
522.0,0.925294,572.485,1329.28,1327.81,0.925947,0.0644441
525.0,0.928665,572.65,1334.31,1332.83,0.927272,0.0657651
528.0,0.928381,572.815,1339.33,1337.86,0.928381,0.0668701
531.0,0.925407,572.979,1344.36,1342.88,0.927555,0.0660401
534.0,0.928969,573.144,1349.38,1347.89,0.928969,0.0674501
537.0,0.931326,573.309,1354.39,1352.91,0.927711,0.0661881
540.0,0.924116,573.474,1359.41,1357.92,0.92559,0.0640631
543.0,0.925577,573.639,1364.42,1362.93,0.925665,0.0641341
546.0,0.925532,573.804,1369.43,1367.93,0.925665,0.0641301
549.0,0.926951,573.968,1374.43,1372.94,0.926729,0.0651901
552.0,0.937842,574.133,1379.43,1377.94,0.934304,0.0727611
555.0,0.936625,574.298,1384.43,1382.93,0.936832,0.0752851
558.0,0.937875,574.463,1389.43,1387.93,0.939078,0.0775271
561.0,0.9386,574.628,1394.42,1392.92,0.9386,0.0770451
564.0,0.93148,574.793,1399.41,1397.91,0.93148,0.0699211
567.0,0.930743,574.957,1404.4,1402.89,0.929677,0.0681141
570.0,0.92686,575.122,1409.39,1407.87,0.927901,0.0663342
573.0,0.941198,575.287,1414.37,1412.85,0.928376,0.0668052
576.0,0.93259,575.452,1419.35,1417.83,0.930937,0.0693622
579.0,0.939521,575.617,1424.32,1422.81,0.932905,0.0713262
582.0,0.9367,575.782,1429.3,1427.78,0.9367,0.0751172
585.0,0.952416,575.946,1434.27,1432.74,0.936248,0.0746612
588.0,0.936807,576.111,1439.24,1437.71,0.93457,0.0729792
591.0,0.928939,576.276,1444.2,1442.67,0.932031,0.0704362
594.0,0.931015,576.441,1449.16,1447.63,0.932596,0.0709972
597.0,0.931585,576.606,1454.12,1452.59,0.931585,0.0699822
600.0,0.938973,576.771,1459.08,1457.54,0.931763,0.0701562
603.0,0.930947,576.936,1464.03,1462.5,0.931389,0.0697782
606.0,0.939229,577.1,1468.98,1467.44,0.932219,0.0706042
609.0,0.928577,577.265,1473.93,1472.39,0.928577,0.0669582
612.0,0.928861,577.43,1478.88,1477.33,0.928861,0.0672382
615.0,0.925455,577.595,1483.82,1482.27,0.923985,0.0623582
618.0,0.925635,577.76,1488.76,1487.21,0.924299,0.0626682
621.0,0.92598,577.925,1493.7,1492.14,0.92603,0.0643952
624.0,0.925984,578.089,1498.63,1497.08,0.925984,0.0643452
627.0,0.921442,578.254,1503.56,1502.01,0.921442,0.0597992
630.0,0.951572,578.419,1508.49,1506.93,0.922137,0.0604902
633.0,0.92134,578.584,1513.41,1511.85,0.921984,0.0603333
636.0,0.922742,578.749,1518.34,1516.77,0.922742,0.0610873
639.0,0.920862,578.914,1523.26,1521.69,0.923196,0.0615373
642.0,0.923854,579.078,1528.17,1526.61,0.923317,0.0616543
645.0,0.923161,579.243,1533.09,1531.52,0.923161,0.0614943
648.0,0.921402,579.408,1538,1536.43,0.921767,0.0600963
651.0,0.923046,579.573,1542.91,1541.33,0.922522,0.0608473
654.0,0.923229,579.738,1547.82,1546.24,0.923384,0.0617053
657.0,0.924883,579.903,1552.72,1551.14,0.924883,0.0632003
660.0,0.922259,580.067,1557.62,1556.04,0.923099,0.0614123
663.0,0.924512,580.232,1562.52,1560.93,0.923099,0.0614083
666.0,0.933971,580.397,1567.41,1565.83,0.922882,0.0611873
669.0,0.926134,580.562,1572.3,1570.72,0.924185,0.0624863
672.0,1.00139,580.727,1577.19,1575.6,0.924185,0.0624823
675.0,0.924025,580.892,1582.08,1580.49,0.923656,0.0619493
678.0,0.92355,581.057,1586.96,1585.37,0.92355,0.0618393
681.0,0.925275,581.221,1591.84,1590.25,0.926093,0.0643783
684.0,0.924932,581.386,1596.72,1595.12,0.926093,0.0643743
687.0,0.926543,581.551,1601.6,1600,0.926306,0.0645833
690.0,0.926256,581.716,1606.47,1604.87,0.926765,0.0650383
693.0,0.92528,581.881,1611.34,1609.73,0.9277,0.0659694
696.0,0.928293,582.046,1616.21,1614.6,0.928293,0.0665584
699.0,0.929923,582.21,1621.07,1619.46,0.933754,0.0720154
702.0,0.93923,582.375,1625.93,1624.32,0.932557,0.0708144
705.0,0.934652,582.54,1630.79,1629.18,0.934652,0.0729054
708.0,0.936993,582.705,1635.65,1634.03,0.934685,0.0729344
711.0,0.935097,582.87,1640.5,1638.88,0.934508,0.0727534
714.0,0.93233,583.035,1645.35,1643.73,0.93233,0.0705714
717.0,0.928389,583.199,1650.2,1648.57,0.931976,0.0702134
720.0,0.932107,583.364,1655.04,1653.42,0.930958,0.0691914
723.0,0.928015,583.529,1659.89,1658.26,0.928015,0.0662444
726.0,0.93021,583.694,1664.73,1663.1,0.93021,0.0684354
729.0,0.931197,583.859,1669.56,1667.93,0.930523,0.0687444
732.0,0.933548,584.024,1674.4,1672.76,0.933548,0.0717654
735.0,0.938572,584.188,1679.23,1677.59,0.938572,0.0767854
738.0,0.94954,584.353,1684.06,1682.42,0.94954,0.0877494
741.0,0.958926,584.518,1688.88,1687.24,0.958926,0.0971314
744.0,0.960019,584.683,1693.71,1692.06,0.960019,0.0982204
747.0,0.956509,584.848,1698.53,1696.88,0.956509,0.0947064
750.0,0.945428,585.013,1703.35,1701.7,0.945428,0.0836214
753.0,0.943297,585.178,1708.16,1706.51,0.943297,0.0814865
756.0,0.939496,585.342,1712.97,1711.32,0.939496,0.0776815
759.0,0.933356,585.507,1717.78,1716.13,0.936346,0.0745275
762.0,0.935161,585.672,1722.59,1720.93,0.935161,0.0733385
765.0,0.937761,585.837,1727.39,1725.73,0.93793,0.0761035
768.0,0.943962,586.002,1732.2,1730.53,0.943962,0.0821315
771.0,0.94412,586.167,1737,1735.33,0.94412,0.0822855
774.0,0.942687,586.331,1741.79,1740.12,0.941778,0.0799395
777.0,0.93589,586.496,1746.58,1744.91,0.93589,0.0740475
780.0,0.930406,586.661,1751.38,1749.7,0.930418,0.0685715
783.0,0.983856,586.826,1756.16,1754.49,0.927648,0.0657975
786.0,0.931672,586.991,1760.95,1759.27,0.927465,0.0656105
789.0,0.929203,587.156,1765.73,1764.05,0.926987,0.0651285
792.0,0.927492,587.32,1770.51,1768.83,0.926987,0.0651245
795.0,0.928641,587.485,1775.29,1773.61,0.925083,0.0632165
798.0,0.937471,587.65,1780.06,1778.38,0.927007,0.0651365
801.0,0.925881,587.815,1784.84,1783.15,0.925317,0.0634425
804.0,0.923948,587.98,1789.61,1787.91,0.924008,0.0621295
807.0,0.924846,588.145,1794.37,1792.68,0.923257,0.0613745
810.0,0.922661,588.309,1799.14,1797.44,0.923257,0.0613705
813.0,0.923911,588.474,1803.9,1802.2,0.925431,0.0635406
816.0,0.925682,588.639,1808.66,1806.96,0.925431,0.0635366
819.0,0.924113,588.804,1813.41,1811.71,0.924113,0.0622146
822.0,0.923864,588.969,1818.17,1816.46,0.925133,0.0632306
825.0,0.92578,589.134,1822.92,1821.21,0.92578,0.0638736
828.0,0.927823,589.299,1827.66,1825.96,0.926756,0.0648456
831.0,0.926708,589.463,1832.41,1830.7,0.926708,0.0647936
834.0,0.923699,589.628,1837.15,1835.44,0.925308,0.0633896
837.0,0.923206,589.793,1841.89,1840.18,0.925308,0.0633856
840.0,0.924972,589.958,1846.63,1844.91,0.924972,0.0630456
843.0,0.928354,590.123,1851.36,1849.65,0.926596,0.0646656
846.0,0.930051,590.288,1856.1,1854.37,0.932228,0.0702936
849.0,0.924196,590.452,1860.83,1859.1,0.927582,0.0656436
852.0,0.925359,590.617,1865.55,1863.83,0.927582,0.0656396
855.0,0.927277,590.782,1870.28,1868.55,0.928103,0.0661566
858.0,0.926607,590.947,1875,1873.27,0.926301,0.0643506
861.0,0.928707,591.112,1879.72,1877.98,0.928707,0.0667526
864.0,0.92516,591.277,1884.43,1882.7,0.929631,0.0676726
867.0,0.942068,591.441,1889.15,1887.41,0.929631,0.0676686
870.0,0.930126,591.606,1893.86,1892.12,0.92806,0.0660936
873.0,0.932159,591.771,1898.57,1896.83,0.926971,0.0650007
876.0,0.927769,591.936,1903.27,1901.53,0.927102,0.0651277
879.0,0.927012,592.101,1907.98,1906.23,0.927102,0.0651237
882.0,0.927803,592.266,1912.68,1910.93,0.92789,0.0659077
885.0,0.925049,592.43,1917.38,1915.62,0.92789,0.0659037
888.0,0.930235,592.595,1922.07,1920.32,0.928254,0.0662637
891.0,0.926467,592.76,1926.76,1925.01,0.92666,0.0646657
894.0,0.927454,592.925,1931.45,1929.7,0.926819,0.0648207
897.0,0.928934,593.09,1936.14,1934.38,0.928266,0.0662637
900.0,0.929053,593.255,1940.83,1939.06,0.927627,0.0656207
903.0,0.927436,593.42,1945.51,1943.74,0.92752,0.0655097
906.0,0.932361,593.584,1950.19,1948.42,0.930934,0.0689197
909.0,0.928186,593.749,1954.86,1953.1,0.929819,0.0678007
912.0,0.928838,593.914,1959.54,1957.77,0.928838,0.0668157
915.0,0.928086,594.079,1964.21,1962.44,0.926714,0.0646877
918.0,0.928377,594.244,1968.88,1967.11,0.926714,0.0646837
921.0,0.927474,594.409,1973.55,1971.77,0.928008,0.0659737
924.0,0.926555,594.573,1978.21,1976.43,0.928193,0.0661547
927.0,0.930555,594.738,1982.87,1981.09,0.929201,0.0671587
930.0,0.925506,594.903,1987.53,1985.75,0.927623,0.0655767
933.0,0.928891,595.068,1992.19,1990.4,0.928891,0.0668408
936.0,0.924544,595.233,1996.84,1995.05,0.927467,0.0654128
939.0,0.930845,595.398,2001.49,1999.7,0.929117,0.0670588
942.0,0.925446,595.562,2006.14,2004.35,0.927588,0.0655258
945.0,0.926615,595.727,2010.79,2008.99,0.926679,0.0646128
948.0,0.92819,595.892,2015.43,2013.63,0.928019,0.0659488
951.0,0.930585,596.057,2020.07,2018.27,0.931346,0.0692718
954.0,0.926893,596.222,2024.71,2022.91,0.926909,0.0648308
957.0,0.925647,596.387,2029.35,2027.54,0.925647,0.0635648
960.0,0.926537,596.551,2033.98,2032.17,0.926537,0.0644508
963.0,0.928431,596.716,2038.61,2036.8,0.930743,0.0686528
966.0,0.92639,596.881,2043.24,2041.43,0.927813,0.0657188
969.0,0.931191,597.046,2047.86,2046.05,0.927813,0.0657148
972.0,0.929197,597.211,2052.49,2050.67,0.929197,0.0670948
975.0,0.932493,597.376,2057.11,2055.29,0.929182,0.0670758
978.0,0.928756,597.541,2061.73,2059.91,0.927336,0.0652258
981.0,0.924848,597.705,2066.34,2064.52,0.927336,0.0652218
984.0,0.928637,597.87,2070.95,2069.13,0.928335,0.0662168
987.0,0.929687,598.035,2075.56,2073.74,0.928335,0.0662128
990.0,0.9278,598.2,2080.17,2078.34,0.927014,0.0648878
993.0,0.926585,598.365,2084.78,2082.95,0.926585,0.0644548
996.0,0.93327,598.53,2089.38,2087.55,0.927598,0.0654639
999.0,0.934138,598.694,2093.98,2092.15,0.927752,0.0656139
1002.0,0.927124,598.859,2098.58,2096.74,0.927124,0.0649819
1005.0,0.927509,599.024,2103.17,2101.33,0.926401,0.0642549
1008.0,0.932337,599.189,2107.77,2105.93,0.92825,0.0660999
1011.0,0.928463,599.354,2112.36,2110.51,0.92825,0.0660959
1014.0,0.92686,599.519,2116.94,2115.1,0.92686,0.0647019
1017.0,0.926135,599.683,2121.53,2119.68,0.926608,0.0644459
1020.0,0.928922,599.848,2126.11,2124.26,0.929289,0.0671229
1023.0,0.927419,600.013,2130.69,2128.84,0.928505,0.0663349
1026.0,0.925378,600.178,2135.27,2133.41,0.928056,0.0658819
1029.0,0.929228,600.343,2139.84,2137.99,0.927872,0.0656939
1032.0,0.928338,600.508,2144.42,2142.56,0.928338,0.0661559
1035.0,0.92499,600.672,2148.99,2147.13,0.928945,0.0667589
1038.0,0.925878,600.837,2153.55,2151.69,0.928041,0.0658509
1041.0,0.927648,601.002,2158.12,2156.25,0.928424,0.0662299
1044.0,0.938235,601.167,2162.68,2160.81,0.928424,0.0662259
1047.0,0.92501,601.332,2167.24,2165.37,0.925485,0.0632829
1050.0,0.927562,601.497,2171.8,2169.93,0.927562,0.0653559
1053.0,0.925136,601.662,2176.35,2174.48,0.926245,0.0640349
1056.0,0.927335,601.826,2180.9,2179.03,0.926723,0.064509
1059.0,0.928792,601.991,2185.45,2183.58,0.927632,0.065414
1062.0,0.926513,602.156,2190,2188.12,0.927456,0.065234
1065.0,0.926104,602.321,2194.55,2192.67,0.926478,0.064252
1068.0,0.927021,602.486,2199.09,2197.21,0.927021,0.064791
1071.0,0.928063,602.651,2203.63,2201.74,0.927769,0.065535
1074.0,0.927767,602.815,2208.17,2206.28,0.927781,0.065543
1077.0,0.926595,602.98,2212.7,2210.81,0.927781,0.065539
1080.0,0.927551,603.145,2217.23,2215.34,0.927551,0.065305
1083.0,0.931307,603.31,2221.76,2219.87,0.931307,0.069057
1086.0,0.927228,603.475,2226.29,2224.4,0.9326,0.070346
1089.0,0.92884,603.64,2230.82,2228.92,0.92884,0.066582
1092.0,0.92697,603.804,2235.34,2233.44,0.92697,0.064708
1095.0,0.933956,603.969,2239.86,2237.96,0.9271,0.064834
1098.0,0.930334,604.134,2244.38,2242.47,0.92684,0.06457
1101.0,0.933181,604.299,2248.89,2246.99,0.929192,0.066918
1104.0,0.928416,604.464,2253.41,2251.5,0.929192,0.066914
1107.0,0.928317,604.629,2257.92,2256,0.928317,0.066035
1110.0,0.926792,604.794,2262.42,2260.51,0.929436,0.06715
1113.0,0.931858,604.958,2266.93,2265.01,0.929954,0.067664
1116.0,0.927368,605.123,2271.43,2269.51,0.929522,0.0672281
1119.0,0.931941,605.288,2275.93,2274.01,0.931481,0.0691831
1122.0,0.931449,605.453,2280.43,2278.51,0.928937,0.0666351
1125.0,0.930713,605.618,2284.93,2283,0.928937,0.0666311
1128.0,0.929551,605.783,2289.42,2287.49,0.92918,0.0668701
1131.0,0.929838,605.947,2293.91,2291.98,0.92918,0.0668661
1134.0,0.932424,606.112,2298.4,2296.47,0.929634,0.0673161
1137.0,0.93345,606.277,2302.88,2300.95,0.930296,0.0679741
1140.0,0.929415,606.442,2307.37,2305.43,0.930134,0.0678081
1143.0,0.926593,606.607,2311.85,2309.91,0.929496,0.0671661
1146.0,0.933036,606.772,2316.33,2314.39,0.931587,0.0692531
1149.0,0.929184,606.936,2320.8,2318.86,0.928819,0.0664811
1152.0,0.929521,607.101,2325.28,2323.33,0.928819,0.0664771
1155.0,0.93645,607.266,2329.75,2327.8,0.928652,0.0663061
1158.0,0.931709,607.431,2334.22,2332.27,0.928652,0.0663021
1161.0,0.930294,607.596,2338.68,2336.73,0.92983,0.0674761
1164.0,0.929719,607.761,2343.15,2341.19,0.928607,0.0662491
1167.0,0.934734,607.925,2347.61,2345.65,0.928607,0.0662451
1170.0,0.92782,608.09,2352.07,2350.11,0.928247,0.0658811
1173.0,0.93324,608.255,2356.52,2354.57,0.930498,0.0681281
1176.0,0.928787,608.42,2360.98,2359.02,0.929655,0.0672812
1179.0,0.928272,608.585,2365.43,2363.47,0.928575,0.0661972
1182.0,0.928952,608.75,2369.88,2367.91,0.928952,0.0665702
1185.0,0.926189,608.915,2374.33,2372.36,0.931996,0.0696102
1188.0,0.929683,609.079,2378.77,2376.8,0.929722,0.0673322
1191.0,0.930749,609.244,2383.21,2381.24,0.929722,0.0673282
1194.0,0.932598,609.409,2387.65,2385.68,0.931687,0.0692892
1197.0,0.928843,609.574,2392.09,2390.12,0.933053,0.0706512
1200.0,0.931434,609.739,2396.52,2394.55,0.931434,0.0690282
1203.0,0.930515,609.904,2400.96,2398.98,0.928487,0.0660772
1206.0,0.930425,610.068,2405.39,2403.41,0.929309,0.0668952
1209.0,0.929238,610.233,2409.82,2407.83,0.929238,0.0668202
1212.0,0.930383,610.398,2414.24,2412.26,0.929668,0.0672462
1215.0,0.92838,610.563,2418.66,2416.68,0.928472,0.0660462
1218.0,0.927425,610.728,2423.08,2421.1,0.928472,0.0660422
1221.0,0.93284,610.893,2427.5,2425.51,0.929117,0.0666832
1224.0,0.927981,611.057,2431.92,2429.93,0.927981,0.0655432
1227.0,0.928659,611.222,2436.33,2434.34,0.928659,0.0662172
1230.0,0.928416,611.387,2440.74,2438.75,0.928416,0.0659702
1233.0,0.930041,611.552,2445.15,2443.15,0.929301,0.0668512
1236.0,0.927756,611.717,2449.56,2447.56,0.928646,0.0661923
1239.0,0.93045,611.882,2453.96,2451.96,0.929045,0.0665873
1242.0,0.930207,612.046,2458.36,2456.36,0.929045,0.0665833
1245.0,0.932425,612.211,2462.76,2460.75,0.928815,0.0663493
1248.0,0.927976,612.376,2467.16,2465.15,0.931381,0.0689113
1251.0,0.927835,612.541,2471.55,2469.54,0.928989,0.0665153
1254.0,0.930214,612.706,2475.95,2473.93,0.929916,0.0674383
1257.0,0.930309,612.871,2480.34,2478.32,0.930309,0.0678273
1260.0,0.929852,613.036,2484.72,2482.71,0.929852,0.0673663
1263.0,0.92632,613.2,2489.11,2487.09,0.927704,0.0652143
1266.0,0.929256,613.365,2493.49,2491.47,0.929256,0.0667623
1269.0,0.927832,613.53,2497.87,2495.85,0.929114,0.0666163
1272.0,0.929231,613.695,2502.25,2500.22,0.929231,0.0667293
1275.0,0.932248,613.86,2506.63,2504.6,0.929626,0.0671203
1278.0,0.9288,614.025,2511,2508.97,0.929081,0.0665713
1281.0,0.928096,614.189,2515.37,2513.34,0.928629,0.0661153
1284.0,0.929355,614.354,2519.74,2517.7,0.928629,0.0661113
1287.0,0.947017,614.519,2524.1,2522.07,0.929177,0.0666553
1290.0,0.929857,614.684,2528.47,2526.43,0.928847,0.0663213
1293.0,0.93129,614.849,2532.83,2530.79,0.928847,0.0663173
1296.0,0.930745,615.014,2537.19,2535.15,0.929346,0.0668124
1299.0,0.929733,615.178,2541.55,2539.5,0.928337,0.0657994
1302.0,0.931651,615.343,2545.9,2543.85,0.928337,0.0657954
1305.0,0.928743,615.508,2550.25,2548.2,0.928743,0.0661974
1308.0,0.927785,615.673,2554.6,2552.55,0.927785,0.0652354
1311.0,0.926776,615.838,2558.95,2556.9,0.927583,0.0650294
1314.0,0.927664,616.003,2563.3,2561.24,0.927664,0.0651064
1317.0,0.929203,616.167,2567.64,2565.58,0.92849,0.0659284
1320.0,0.933611,616.332,2571.98,2569.92,0.92849,0.0659244
1323.0,0.941149,616.497,2576.32,2574.26,0.927346,0.0647764
1326.0,0.928503,616.662,2580.65,2578.59,0.926035,0.0634614
1329.0,0.928519,616.827,2584.99,2582.92,0.926586,0.0640084
1332.0,0.924733,616.992,2589.32,2587.25,0.925817,0.0632354
1335.0,0.929263,617.157,2593.65,2591.58,0.925339,0.0627534
1338.0,0.928821,617.321,2597.97,2595.9,0.925787,0.0631974
1341.0,0.924675,617.486,2602.3,2600.22,0.925787,0.0631934
1344.0,0.927264,617.651,2606.62,2604.54,0.927264,0.0646664
1347.0,0.928277,617.816,2610.94,2608.86,0.927519,0.0649174
1350.0,0.932613,617.981,2615.26,2613.18,0.927519,0.0649134
1353.0,0.924565,618.146,2619.57,2617.49,0.925586,0.0629764
1356.0,0.925746,618.31,2623.89,2621.8,0.925586,0.0629724
1359.0,0.925855,618.475,2628.2,2626.11,0.925855,0.0632375
1362.0,0.924313,618.64,2632.5,2630.42,0.924313,0.0616915
1365.0,0.923217,618.805,2636.81,2634.72,0.924085,0.0614595
1368.0,0.923439,618.97,2641.11,2639.02,0.924085,0.0614555
1371.0,0.921367,619.135,2645.42,2643.32,0.92285,0.0602165
1374.0,0.922859,619.299,2649.71,2647.62,0.922859,0.0602215
1377.0,0.925573,619.464,2654.01,2651.91,0.925573,0.0629315
1380.0,0.926056,619.629,2658.31,2656.21,0.926056,0.0634105
1383.0,0.921298,619.794,2662.6,2660.5,0.921298,0.0586485
1386.0,0.923305,619.959,2666.89,2664.78,0.923305,0.0606515
1389.0,0.924743,620.124,2671.18,2669.07,0.924743,0.0620855
1392.0,0.933944,620.288,2675.46,2673.35,0.921045,0.0583835
1395.0,0.923998,620.453,2679.74,2677.63,0.922844,0.0601785
1398.0,0.921339,620.618,2684.03,2681.91,0.922455,0.0597855
1401.0,0.920639,620.783,2688.3,2686.19,0.921743,0.0590695
1404.0,0.919604,620.948,2692.58,2690.46,0.921566,0.0588885
1407.0,0.918529,621.113,2696.85,2694.74,0.921063,0.0583815
1410.0,0.922761,621.278,2701.13,2699.01,0.922275,0.0595895
1413.0,0.922518,621.442,2705.4,2703.27,0.922518,0.0598285
1416.0,0.923093,621.607,2709.66,2707.54,0.923093,0.0603995
1419.0,0.924598,621.772,2713.93,2711.8,0.924138,0.0614406
1422.0,0.927564,621.937,2718.19,2716.06,0.92213,0.0594286
1425.0,0.921375,622.102,2722.45,2720.32,0.921375,0.0586696
1428.0,0.928996,622.267,2726.71,2724.58,0.923923,0.0612136
1431.0,0.920624,622.431,2730.96,2728.83,0.922464,0.0597506
1434.0,0.92409,622.596,2735.22,2733.08,0.922464,0.0597466
1437.0,0.925898,622.761,2739.47,2737.33,0.92231,0.0595886
1440.0,0.921262,622.926,2743.72,2741.58,0.92231,0.0595846
1443.0,0.92293,623.091,2747.97,2745.82,0.92293,0.0602006
1446.0,0.923707,623.256,2752.21,2750.07,0.923496,0.0607626
1449.0,0.920263,623.42,2756.45,2754.31,0.922184,0.0594466
1452.0,0.919658,623.585,2760.69,2758.55,0.921226,0.0584846
1455.0,0.922701,623.75,2764.93,2762.78,0.921527,0.0587816
1458.0,0.918762,623.915,2769.17,2767.01,0.920839,0.0580896
1461.0,0.932573,624.08,2773.4,2771.25,0.921188,0.0584346
1464.0,0.91921,624.245,2777.63,2775.48,0.920549,0.0577916
1467.0,0.919257,624.409,2781.86,2779.7,0.919079,0.0563176
1470.0,0.916625,624.574,2786.09,2783.93,0.919079,0.0563136
1473.0,0.918719,624.739,2790.31,2788.15,0.919897,0.0571276
1476.0,0.918336,624.904,2794.53,2792.37,0.919409,0.0566356
1479.0,0.919622,625.069,2798.75,2796.59,0.919622,0.0568447
1482.0,0.919029,625.234,2802.97,2800.8,0.919458,0.0566767
1485.0,0.918945,625.399,2807.19,2805.02,0.918945,0.0561597
1488.0,0.916391,625.563,2811.4,2809.23,0.918829,0.0560397
1491.0,0.918608,625.728,2815.61,2813.44,0.918879,0.0560857
1494.0,0.918707,625.893,2819.82,2817.65,0.918707,0.0559097
1497.0,0.917338,626.058,2824.03,2821.85,0.918227,0.0554257
1500.0,0.916518,626.223,2828.23,2826.05,0.918811,0.0560057
1503.0,0.918864,626.388,2832.44,2830.25,0.918811,0.0560017
1506.0,0.920055,626.552,2836.64,2834.45,0.920055,0.0572417
1509.0,0.916405,626.717,2840.83,2838.65,0.920008,0.0571907
1512.0,0.920063,626.882,2845.03,2842.84,0.920008,0.0571867
1515.0,0.936667,627.047,2849.22,2847.03,0.920146,0.0573207
1518.0,0.918898,627.212,2853.41,2851.22,0.919485,0.0566557
1521.0,0.920439,627.377,2857.6,2855.41,0.920439,0.0576057
1524.0,0.921545,627.541,2861.79,2859.59,0.921318,0.0584807
1527.0,0.920274,627.706,2865.97,2863.78,0.920274,0.0574327
1530.0,0.919799,627.871,2870.16,2867.96,0.919799,0.0569537
1533.0,0.920572,628.036,2874.34,2872.14,0.920572,0.0577227
1536.0,0.919358,628.201,2878.52,2876.31,0.919339,0.0564857
1539.0,0.921824,628.366,2882.69,2880.49,0.919339,0.0564818
1542.0,0.918556,628.53,2886.87,2884.66,0.921132,0.0582708
1545.0,0.926744,628.695,2891.04,2888.83,0.921132,0.0582668
1548.0,0.920232,628.86,2895.21,2892.99,0.918973,0.0561038
1551.0,0.921031,629.025,2899.37,2897.16,0.919309,0.0564358
1554.0,0.920071,629.19,2903.54,2901.32,0.920071,0.0571938
1557.0,0.921834,629.355,2907.7,2905.48,0.923692,0.0608108
1560.0,0.926011,629.52,2911.86,2909.64,0.926946,0.0640608
1563.0,0.938024,629.684,2916.02,2913.8,0.938024,0.0751348
1566.0,0.959945,629.849,2920.18,2917.95,0.959945,0.0970518
1569.0,0.984235,630.014,2924.33,2922.1,0.984235,0.121338
1572.0,0.993174,630.179,2928.48,2926.25,0.993174,0.130273
1575.0,0.986307,630.344,2932.63,2930.4,0.986307,0.123402
1578.0,0.965147,630.509,2936.78,2934.55,0.965147,0.102238
1581.0,0.951469,630.673,2940.93,2938.69,0.951469,0.0885558
1584.0,0.955298,630.838,2945.07,2942.83,0.955298,0.0923808
1587.0,0.975291,631.003,2949.21,2946.97,0.975291,0.11237
1590.0,0.998583,631.168,2953.35,2951.11,0.999566,0.136641
1593.0,1.00594,631.333,2957.49,2955.24,1.0053,0.142371
1596.0,1.00865,631.498,2961.62,2959.38,1.00192,0.138987
1599.0,0.978691,631.662,2965.75,2963.51,0.981235,0.118298
1602.0,0.986223,631.827,2969.88,2967.64,0.986223,0.123282
1605.0,1.00659,631.992,2974.01,2971.76,1.00659,0.143645
1608.0,1.00794,632.157,2978.14,2975.89,1.00862,0.145671
1611.0,1.00196,632.322,2982.26,2980.01,1.00196,0.139007
1614.0,0.993556,632.487,2986.38,2984.13,0.993556,0.130599
1617.0,0.978494,632.651,2990.5,2988.24,0.978494,0.115533
1620.0,0.965631,632.816,2994.62,2992.36,0.965631,0.102666
1623.0,0.952381,632.981,2998.73,2996.47,0.952381,0.0894119
1626.0,0.941143,633.146,3002.85,3000.58,0.941143,0.0781699
1629.0,0.926076,633.311,3006.96,3004.69,0.926076,0.0630989
1632.0,0.921453,633.476,3011.07,3008.8,0.921928,0.0589469
1635.0,0.914892,633.641,3015.17,3012.91,0.915925,0.0529399
1638.0,0.913657,633.805,3019.28,3017.01,0.913657,0.0506679
1641.0,0.911669,633.97,3023.38,3021.11,0.911669,0.0486759
1644.0,0.910962,634.135,3027.48,3025.21,0.910824,0.0478269
1647.0,0.909266,634.3,3031.58,3029.3,0.909745,0.0467439
1650.0,0.90924,634.465,3035.68,3033.4,0.909131,0.0461259
1653.0,0.909151,634.63,3039.77,3037.49,0.90896,0.0459509
1656.0,0.908433,634.794,3043.86,3041.58,0.908189,0.0451759
1659.0,0.907857,634.959,3047.95,3045.67,0.907857,0.0448399
1662.0,0.908633,635.124,3052.04,3049.75,0.908633,0.045612
1665.0,0.907834,635.289,3056.12,3053.84,0.90763,0.044605
1668.0,0.906952,635.454,3060.21,3057.92,0.906461,0.043432
1671.0,0.906298,635.619,3064.29,3062,0.906298,0.043265
1674.0,0.914102,635.783,3068.37,3066.07,0.906933,0.043896
1677.0,0.902965,635.948,3072.44,3070.15,0.904863,0.041822
1680.0,0.90516,636.113,3076.52,3074.22,0.90401,0.040965
1683.0,0.904419,636.278,3080.59,3078.29,0.903992,0.040943
1686.0,0.903338,636.443,3084.66,3082.36,0.903582,0.040529
1689.0,0.903582,636.608,3088.73,3086.43,0.903582,0.040525
1692.0,0.904246,636.772,3092.8,3090.49,0.904246,0.041185
1695.0,0.904637,636.937,3096.86,3094.55,0.904428,0.041363
1698.0,0.906026,637.102,3100.92,3098.61,0.906717,0.043648
1701.0,0.903302,637.267,3104.98,3102.67,0.906717,0.043644
1704.0,0.901288,637.432,3109.04,3106.73,0.905297,0.04222
1707.0,0.906531,637.597,3113.1,3110.78,0.905297,0.042216
1710.0,0.90435,637.762,3117.15,3114.83,0.90435,0.041265
1713.0,0.90073,637.926,3121.2,3118.88,0.903461,0.040372
1716.0,0.903539,638.091,3125.25,3122.93,0.903461,0.040368
1719.0,0.9043,638.256,3129.3,3126.98,0.904182,0.041085
1722.0,0.907041,638.421,3133.34,3131.02,0.903698,0.0405971
1725.0,0.904368,638.586,3137.39,3135.06,0.902837,0.0397321
1728.0,0.904702,638.751,3141.43,3139.1,0.904176,0.0410671
1731.0,0.902984,638.915,3145.47,3143.14,0.904264,0.0411511
1734.0,0.901519,639.08,3149.51,3147.17,0.903756,0.0406391
1737.0,0.905899,639.245,3153.54,3151.21,0.903756,0.0406351
1740.0,0.906246,639.41,3157.57,3155.24,0.90353,0.0404051
1743.0,0.9035,639.575,3161.6,3159.27,0.90353,0.0404011
1746.0,0.904174,639.74,3165.63,3163.29,0.904842,0.0417091
1749.0,0.908666,639.904,3169.66,3167.32,0.905436,0.0422991
1752.0,0.905922,640.069,3173.68,3171.34,0.903971,0.0408301
1755.0,0.903354,640.234,3177.71,3175.36,0.903971,0.0408261
1758.0,0.903871,640.399,3181.73,3179.38,0.905384,0.0422351
1761.0,0.904134,640.564,3185.75,3183.4,0.904134,0.0409811
1764.0,0.904109,640.729,3189.76,3187.41,0.904109,0.0409521
1767.0,0.904323,640.893,3193.78,3191.42,0.905768,0.0426071
1770.0,0.901791,641.058,3197.79,3195.43,0.903108,0.0399431
1773.0,0.906697,641.223,3201.8,3199.44,0.90259,0.0394211
1776.0,0.902736,641.388,3205.81,3203.45,0.90259,0.0394171
1779.0,0.899371,641.553,3209.81,3207.45,0.902247,0.0390701
1782.0,0.903816,641.718,3213.82,3211.45,0.902666,0.0394852
1785.0,0.902425,641.883,3217.82,3215.45,0.902164,0.0389792
1788.0,0.901452,642.047,3221.82,3219.45,0.901421,0.0382322
1791.0,0.899443,642.212,3225.82,3223.45,0.899504,0.0363112
1794.0,0.900414,642.377,3229.81,3227.44,0.899504,0.0363072
1797.0,0.898305,642.542,3233.81,3231.43,0.899106,0.0359052
1800.0,0.898038,642.707,3237.8,3235.42,0.898174,0.0349692
1803.0,0.901047,642.872,3241.79,3239.41,0.900162,0.0369532
1806.0,0.902195,643.036,3245.77,3243.4,0.900162,0.0369492
1809.0,0.910382,643.201,3249.76,3247.38,0.89968,0.0364632
1812.0,0.897425,643.366,3253.74,3251.36,0.898028,0.0348072
1815.0,0.89812,643.531,3257.72,3255.34,0.901555,0.0383302
1818.0,0.896534,643.696,3261.7,3259.32,0.901001,0.0377722
1821.0,0.89808,643.861,3265.68,3263.29,0.898471,0.0352382
1824.0,0.89985,644.025,3269.66,3267.27,0.900564,0.0373272
1827.0,0.898142,644.19,3273.63,3271.24,0.900596,0.0373552
1830.0,0.904566,644.355,3277.6,3275.21,0.901836,0.0385912
1833.0,0.903134,644.52,3281.57,3279.18,0.902335,0.0390862
1836.0,0.90316,644.685,3285.54,3283.14,0.903355,0.0401022
1839.0,0.906296,644.85,3289.5,3287.1,0.904008,0.0407512
1842.0,0.902199,645.015,3293.47,3291.07,0.903309,0.0400483
1845.0,0.903313,645.179,3297.43,3295.02,0.903313,0.0400483
1848.0,0.904519,645.344,3301.39,3298.98,0.903312,0.0400433
1851.0,0.898109,645.509,3305.34,3302.94,0.897719,0.0344463
1854.0,0.900203,645.674,3309.3,3306.89,0.896911,0.0336343
1857.0,0.891441,645.839,3313.25,3310.84,0.89449,0.0312093
1860.0,0.893891,646.004,3317.2,3314.79,0.893738,0.0304533
1863.0,0.892015,646.168,3321.15,3318.74,0.89224,0.0289513
1866.0,0.888972,646.333,3325.1,3322.68,0.888972,0.0256793
1869.0,0.88792,646.498,3329.04,3326.63,0.888261,0.0249643
1872.0,0.888312,646.663,3332.98,3330.57,0.888312,0.0250113
1875.0,0.890665,646.828,3336.93,3334.51,0.886934,0.0236293
1878.0,0.8884,646.993,3340.86,3338.44,0.88625,0.0229413
1881.0,0.885481,647.157,3344.8,3342.38,0.88613,0.0228173
1884.0,0.883963,647.322,3348.74,3346.31,0.884679,0.0213623
1887.0,0.8885,647.487,3352.67,3350.24,0.885027,0.0217063
1890.0,0.885971,647.652,3356.6,3354.17,0.885046,0.0217213
1893.0,0.883964,647.817,3360.53,3358.1,0.883553,0.0202244
1896.0,0.887093,647.982,3364.46,3362.02,0.883553,0.0202204
1899.0,0.880799,648.146,3368.38,3365.95,0.882563,0.0192265
1902.0,0.88016,648.311,3372.3,3369.87,0.881864,0.0185237
1905.0,0.880887,648.476,3376.22,3373.79,0.880887,0.0175431
1908.0,0.882318,648.641,3380.14,3377.7,0.881245,0.0178975
1911.0,0.88019,648.806,3384.06,3381.62,0.88019,0.0168391
1914.0,0.877719,648.971,3387.98,3385.53,0.879566,0.0162119
1917.0,0.878636,649.136,3391.89,3389.44,0.87916,0.0158028
1920.0,0.87908,649.3,3395.8,3393.35,0.87916,0.0157998
1923.0,0.875244,649.465,3399.71,3397.26,0.877677,0.0143138
1926.0,0.875017,649.63,3403.62,3401.16,0.877677,0.014311
1929.0,0.877454,649.795,3407.52,3405.07,0.877454,0.0140853
1932.0,0.882914,649.96,3411.42,3408.97,0.877172,0.0138006
1935.0,0.876655,650.125,3415.32,3412.87,0.876655,0.0132811
1938.0,0.879605,650.289,3419.22,3416.76,0.875084,0.0117077
1941.0,0.875648,650.454,3423.12,3420.66,0.875153,0.0117744
1944.0,0.879781,650.619,3427.02,3424.55,0.875,0.0116193
1947.0,0.87338,650.784,3430.91,3428.44,0.874855,0.0114722
1950.0,0.873568,650.949,3434.8,3432.33,0.876085,0.0127002
1953.0,0.87609,651.114,3438.69,3436.22,0.87609,0.0127033
1956.0,0.875775,651.278,3442.58,3440.11,0.876588,0.0131995
1959.0,0.873156,651.443,3446.46,3443.99,0.875627,0.0122369
1962.0,0.874403,651.608,3450.34,3447.87,0.874799,0.0114073
1965.0,0.874677,651.773,3454.23,3451.75,0.87455,0.0111569
1968.0,0.882533,651.938,3458.11,3455.63,0.87455,0.0111555
1971.0,0.873481,652.103,3461.98,3459.5,0.874454,0.0110583
1974.0,0.873325,652.267,3465.86,3463.38,0.873325,0.00992817
1977.0,0.87245,652.432,3469.73,3467.25,0.872789,0.00939114
1980.0,0.873472,652.597,3473.6,3471.12,0.872789,0.0093902
1983.0,0.871885,652.762,3477.47,3474.99,0.870597,0.00719733
1986.0,0.872645,652.927,3481.34,3478.85,0.872645,0.00924454
1989.0,0.876638,653.092,3485.21,3482.72,0.877724,0.0143228
1992.0,0.88257,653.257,3489.07,3486.58,0.884097,0.0206952
1995.0,0.888997,653.421,3492.93,3490.44,0.890118,0.0267157
1998.0,0.888967,653.586,3496.79,3494.3,0.890118,0.0267152
2001.0,0.888768,653.751,3500.65,3498.15,0.888634,0.0252307
2004.0,0.883302,653.916,3504.51,3502.01,0.883302,0.0198981
2007.0,0.875639,654.081,3508.36,3505.86,0.87844,0.0150356
2010.0,0.873339,654.246,3512.21,3509.71,0.873977,0.0105722
2013.0,0.873259,654.41,3516.06,3513.56,0.872937,0.00953195
2016.0,0.869058,654.575,3519.91,3517.4,0.869545,0.00613973
2019.0,0.870571,654.74,3523.76,3521.25,0.867962,0.00455657
2022.0,0.866049,654.905,3527.6,3525.09,0.866638,0.00323246
2025.0,0.866614,655.07,3531.44,3528.93,0.866614,0.00320838
2028.0,0.864635,655.235,3535.28,3532.77,0.865025,0.00161933
2031.0,0.865035,655.399,3539.12,3536.61,0.865025,0.00161929
2034.0,0.866607,655.564,3542.96,3540.44,0.865912,0.00250627
2037.0,0.862314,655.729,3546.79,3544.27,0.862314,-0.00109173
2040.0,0.86575,655.894,3550.63,3548.1,0.863825,0.000419256
2043.0,0.865683,656.059,3554.46,3551.93,0.863825,0.000419256
2046.0,0.862543,656.224,3558.28,3555.76,0.862543,-0.000862741
2047.0,0.864653,656.279,3559.56,3557.04,0.862543,-0.000862742