File: data/processed/processed_data/2024-10-11/2024-10-11_potassiumphosphatemonobasicpowder_n_n_n_solid_10000_0_5.csv
Pixels #,Intensity (a.u.),Wavelength (nm),Raman shift (cm-1),Raman shift (cm-1) adjusted,Filtered Intensity (a.u.),Baselined Filtered Intensity (a.u.)
0.0,0.817151,543.803,407.968,406.929,0.817,0.010495
3.0,0.816597,543.967,413.541,412.499,0.818679,0.012174
6.0,0.817612,544.132,419.11,418.065,0.818679,0.012174
9.0,0.819161,544.297,424.676,423.628,0.818896,0.012391
12.0,0.823425,544.462,430.238,429.188,0.817018,0.010513
15.0,0.820194,544.627,435.797,434.744,0.817076,0.010571
18.0,0.819841,544.792,441.353,440.297,0.817076,0.010571
21.0,0.819398,544.957,446.905,445.847,0.816366,0.00986096
24.0,0.815794,545.121,452.454,451.393,0.816399,0.00989396
27.0,0.81781,545.286,457.999,456.936,0.816918,0.010413
30.0,0.818507,545.451,463.542,462.476,0.818507,0.012002
33.0,0.818488,545.616,469.08,468.012,0.819694,0.013189
36.0,0.816685,545.781,474.616,473.545,0.818091,0.011586
39.0,0.848266,545.946,480.148,479.075,0.818813,0.012308
42.0,0.815478,546.11,485.677,484.601,0.818291,0.011786
45.0,0.817578,546.275,491.202,490.124,0.817578,0.011073
48.0,0.821096,546.44,496.725,495.643,0.819672,0.013167
51.0,0.818222,546.605,502.243,501.16,0.819464,0.012959
54.0,0.831668,546.77,507.759,506.672,0.820342,0.013837
57.0,0.818483,546.935,513.271,512.182,0.819127,0.012622
60.0,0.820444,547.099,518.78,517.688,0.819158,0.012653
63.0,0.818385,547.264,524.285,523.191,0.819549,0.013044
66.0,0.81905,547.429,529.788,528.691,0.820499,0.013994
69.0,0.819609,547.594,535.287,534.187,0.820709,0.014204
72.0,0.818184,547.759,540.782,539.68,0.81849,0.011985
75.0,0.818184,547.924,546.275,545.17,0.818033,0.011528
78.0,0.819695,548.088,551.763,550.656,0.818455,0.01195
81.0,0.821229,548.253,557.249,556.139,0.818502,0.011997
84.0,0.818529,548.418,562.732,561.619,0.818502,0.011997
87.0,0.818488,548.583,568.211,567.096,0.818488,0.011983
90.0,0.820276,548.748,573.686,572.569,0.819881,0.013376
93.0,0.816952,548.913,579.159,578.039,0.817815,0.01131
96.0,0.817049,549.078,584.628,583.506,0.817103,0.010598
99.0,0.817186,549.242,590.094,588.969,0.817186,0.010681
102.0,0.819681,549.407,595.557,594.429,0.818605,0.0121
105.0,0.818938,549.572,601.016,599.886,0.818938,0.012433
108.0,0.81842,549.737,606.472,605.339,0.81827,0.011765
111.0,0.815914,549.902,611.925,610.79,0.815914,0.00940896
114.0,0.815729,550.067,617.375,616.237,0.816896,0.010391
117.0,0.815113,550.231,622.821,621.68,0.816392,0.00988696
120.0,0.815851,550.396,628.264,627.121,0.817039,0.010534
123.0,0.817081,550.561,633.704,632.558,0.817159,0.010654
126.0,0.81521,550.726,639.14,637.992,0.817159,0.010654
129.0,0.81582,550.891,644.574,643.423,0.817965,0.01146
132.0,0.81977,551.056,650.004,648.85,0.818132,0.011627
135.0,0.815763,551.22,655.431,654.274,0.815763,0.00925798
138.0,0.814494,551.385,660.854,659.695,0.81619,0.009685
141.0,0.81514,551.55,666.274,665.113,0.817045,0.01054
144.0,0.817744,551.715,671.691,670.528,0.817045,0.01054
147.0,0.815391,551.88,677.105,675.939,0.816164,0.00965905
150.0,0.817335,552.045,682.516,681.347,0.817335,0.0108301
153.0,0.815636,552.209,687.923,686.752,0.815636,0.00913109
156.0,0.816442,552.374,693.327,692.153,0.81562,0.00911511
159.0,0.825361,552.539,698.728,697.552,0.816391,0.00988613
162.0,0.814639,552.704,704.126,702.947,0.816391,0.00988615
165.0,0.814615,552.869,709.52,708.339,0.814977,0.00847217
168.0,0.815506,553.034,714.912,713.727,0.815969,0.00946419
171.0,0.815644,553.199,720.3,719.113,0.817183,0.0106782
174.0,0.814979,553.363,725.684,724.495,0.817183,0.0106782
177.0,0.813718,553.528,731.066,729.874,0.814995,0.00849024
180.0,0.816468,553.693,736.444,735.25,0.816468,0.00996327
183.0,0.815727,553.858,741.82,740.623,0.817229,0.0107243
186.0,0.817152,554.023,747.192,745.992,0.817477,0.0109723
189.0,0.814455,554.188,752.561,751.359,0.814821,0.00831639
192.0,0.817668,554.352,757.926,756.722,0.814821,0.00831642
195.0,0.816452,554.517,763.289,762.082,0.816452,0.00994746
198.0,0.816112,554.682,768.648,767.438,0.816112,0.0096075
201.0,0.814945,554.847,774.004,772.792,0.814945,0.00844055
204.0,0.815921,555.012,779.357,778.142,0.815921,0.0094166
207.0,0.814593,555.177,784.706,783.489,0.815502,0.00899766
210.0,0.81471,555.341,790.053,788.833,0.815502,0.00899771
213.0,0.81794,555.506,795.396,794.174,0.817809,0.0113048
216.0,0.818882,555.671,800.737,799.512,0.818098,0.0115938
219.0,0.814274,555.836,806.074,804.846,0.817727,0.0112229
222.0,0.816743,556.001,811.407,810.178,0.817727,0.0112229
225.0,0.820043,556.166,816.738,815.506,0.818333,0.011829
228.0,0.816669,556.33,822.066,820.831,0.818628,0.012124
231.0,0.819783,556.495,827.39,826.153,0.819783,0.0132791
234.0,0.821005,556.66,832.711,831.472,0.820529,0.0140252
237.0,0.817781,556.825,838.029,836.787,0.819896,0.0133922
240.0,0.818955,556.99,843.344,842.1,0.819896,0.0133923
243.0,0.819674,557.155,848.656,847.409,0.821442,0.0149383
246.0,0.822702,557.32,853.965,852.715,0.822702,0.0161984
249.0,0.837843,557.484,859.27,858.018,0.823846,0.0173424
252.0,0.82278,557.649,864.572,863.318,0.823142,0.0166385
255.0,0.823257,557.814,869.872,868.615,0.824041,0.0175375
258.0,0.822776,557.979,875.168,873.908,0.824114,0.0176106
261.0,0.827409,558.144,880.461,879.199,0.826313,0.0198097
264.0,0.826146,558.309,885.751,884.486,0.828944,0.0224407
267.0,0.837753,558.473,891.037,889.77,0.837226,0.0307228
270.0,0.840861,558.638,896.321,895.051,0.840861,0.0343578
273.0,0.859946,558.803,901.601,900.329,0.856239,0.0497359
276.0,0.862614,558.968,906.879,905.604,0.862614,0.0561109
279.0,0.868989,559.133,912.153,910.876,0.866809,0.060306
282.0,0.867049,559.298,917.424,916.145,0.866809,0.0603061
285.0,0.855966,559.462,922.692,921.41,0.855966,0.0494631
288.0,0.840669,559.627,927.957,926.673,0.846104,0.0396012
291.0,0.835072,559.792,933.219,931.932,0.835897,0.0293942
294.0,0.831364,559.957,938.478,937.188,0.831364,0.0248613
297.0,0.828611,560.122,943.733,942.441,0.828611,0.0221083
300.0,0.828312,560.287,948.986,947.691,0.828312,0.0218094
303.0,0.824358,560.452,954.235,952.938,0.824358,0.0178554
306.0,0.823352,560.616,959.482,958.182,0.824253,0.0177505
309.0,0.824837,560.781,964.725,963.423,0.824456,0.0179536
312.0,0.821877,560.946,969.965,968.661,0.821877,0.0153746
315.0,0.821029,561.111,975.202,973.896,0.823803,0.0173007
318.0,0.822239,561.276,980.436,979.127,0.822239,0.0157367
321.0,0.820473,561.441,985.667,984.356,0.821408,0.0149058
324.0,0.819169,561.605,990.895,989.581,0.821739,0.0152368
327.0,0.820623,561.77,996.12,994.803,0.820623,0.0141209
330.0,0.821048,561.935,1001.34,1000.02,0.82053,0.0140279
333.0,0.818773,562.1,1006.56,1005.24,0.819647,0.013145
336.0,0.82069,562.265,1011.78,1010.45,0.82069,0.0141881
339.0,0.821781,562.43,1016.99,1015.66,0.821339,0.0148371
342.0,0.817591,562.594,1022.2,1020.87,0.819718,0.0132162
345.0,0.817951,562.759,1027.4,1026.07,0.819044,0.0125422
348.0,0.81627,562.924,1032.61,1031.27,0.818747,0.0122453
351.0,0.819651,563.089,1037.81,1036.47,0.818759,0.0122573
354.0,0.817496,563.254,1043.01,1041.67,0.817555,0.0110534
357.0,0.818145,563.419,1048.2,1046.86,0.817555,0.0110534
360.0,0.817766,563.583,1053.39,1052.05,0.817766,0.0112645
363.0,0.819027,563.748,1058.58,1057.23,0.817924,0.0114226
366.0,0.819257,563.913,1063.77,1062.42,0.817228,0.0107266
369.0,0.820553,564.078,1068.95,1067.6,0.817228,0.0107267
372.0,0.816761,564.243,1074.13,1072.77,0.816659,0.0101577
375.0,0.815163,564.408,1079.3,1077.95,0.816185,0.00968378
378.0,0.821877,564.573,1084.48,1083.12,0.815494,0.00899284
381.0,0.815771,564.737,1089.65,1088.28,0.815523,0.00902189
384.0,0.815019,564.902,1094.81,1093.45,0.815523,0.00902195
387.0,0.814733,565.067,1099.98,1098.61,0.815294,0.008793
390.0,0.815364,565.232,1105.14,1103.77,0.815364,0.00886307
393.0,0.812789,565.397,1110.3,1108.93,0.812789,0.00628814
396.0,0.814692,565.562,1115.45,1114.08,0.8128,0.00629923
399.0,0.815554,565.726,1120.6,1119.23,0.813751,0.00725033
402.0,0.813441,565.891,1125.75,1124.37,0.813441,0.00694043
405.0,0.825751,566.056,1130.9,1129.52,0.812853,0.00635254
408.0,0.814955,566.221,1136.04,1134.66,0.812645,0.00614464
411.0,0.812601,566.386,1141.18,1139.8,0.812601,0.00610076
414.0,0.811024,566.551,1146.32,1144.93,0.812013,0.00551289
417.0,0.815071,566.715,1151.45,1150.06,0.812013,0.00551306
420.0,0.812507,566.88,1156.58,1155.19,0.812507,0.00600724
423.0,0.812595,567.045,1161.71,1160.32,0.812595,0.00609543
426.0,0.81399,567.21,1166.84,1165.44,0.811917,0.00541763
429.0,0.810492,567.375,1171.96,1170.56,0.811398,0.00489886
432.0,0.814273,567.54,1177.08,1175.68,0.814273,0.00777411
435.0,0.812221,567.704,1182.19,1180.79,0.813071,0.00657238
438.0,0.81002,567.869,1187.31,1185.9,0.811858,0.00535967
441.0,0.812166,568.034,1192.42,1191.01,0.811858,0.00535998
444.0,0.810981,568.199,1197.52,1196.11,0.809001,0.00250332
447.0,0.813778,568.364,1202.63,1201.21,0.809016,0.0025187
450.0,0.811514,568.529,1207.73,1206.31,0.809509,0.00301209
453.0,0.817896,568.694,1212.83,1211.41,0.81,0.00350351
456.0,0.810701,568.858,1217.92,1216.5,0.810701,0.00420495
459.0,0.812768,569.023,1223.02,1221.59,0.812768,0.00627242
462.0,0.808794,569.188,1228.11,1226.68,0.810451,0.0039559
465.0,0.808733,569.353,1233.19,1231.76,0.808733,0.00223841
468.0,0.808452,569.518,1238.28,1236.85,0.808452,0.00195794
471.0,0.809819,569.683,1243.36,1241.92,0.809819,0.00332549
474.0,0.81128,569.847,1248.43,1247,0.808547,0.00205407
477.0,0.808259,570.012,1253.51,1252.07,0.808738,0.00224567
480.0,0.807505,570.177,1258.58,1257.14,0.80896,0.00246829
483.0,0.81082,570.342,1263.65,1262.21,0.810067,0.00357592
486.0,0.811868,570.507,1268.72,1267.27,0.810183,0.00369259
489.0,0.810531,570.672,1273.78,1272.33,0.808793,0.00230329
492.0,0.807362,570.836,1278.84,1277.39,0.808793,0.00230401
495.0,0.81047,571.001,1283.9,1282.44,0.81047,0.00398175
498.0,0.808452,571.166,1288.95,1287.5,0.808452,0.00196451
501.0,0.811063,571.331,1294,1292.55,0.810198,0.00371129
504.0,0.807207,571.496,1299.05,1297.59,0.807258,0.000772085
507.0,0.80686,571.661,1304.1,1302.63,0.807258,0.000772892
510.0,0.806005,571.825,1309.14,1307.67,0.808187,0.00170271
513.0,0.807693,571.99,1314.18,1312.71,0.807693,0.00120953
516.0,0.806755,572.155,1319.22,1317.75,0.808071,0.00158836
519.0,0.811262,572.32,1324.25,1322.78,0.811262,0.0047802
522.0,0.807783,572.485,1329.28,1327.81,0.808869,0.00238806
525.0,0.81047,572.65,1334.31,1332.83,0.809468,0.00298793
528.0,0.80801,572.815,1339.33,1337.86,0.808179,0.00169983
531.0,0.804853,572.979,1344.36,1342.88,0.80697,0.000491752
534.0,0.807495,573.144,1349.38,1347.89,0.807648,0.00117067
537.0,0.810663,573.309,1354.39,1352.91,0.807648,0.00117159
540.0,0.805975,573.474,1359.41,1357.92,0.805975,-0.000500477
543.0,0.806884,573.639,1364.42,1362.93,0.80781,0.00133546
546.0,0.806871,573.804,1369.43,1367.93,0.806871,0.0003974
549.0,0.806071,573.968,1374.43,1372.94,0.806511,3.83496e-05
552.0,0.811291,574.133,1379.43,1377.94,0.806973,0.000501295
555.0,0.803892,574.298,1384.43,1382.93,0.805217,-0.00125375
558.0,0.80436,574.463,1389.43,1387.93,0.806291,-0.000178796
561.0,0.807413,574.628,1394.42,1392.92,0.806291,-0.000177843
564.0,0.804221,574.793,1399.41,1397.91,0.805705,-0.000762888
567.0,0.807085,574.957,1404.4,1402.89,0.806177,-0.000289945
570.0,0.805517,575.122,1409.39,1407.87,0.804828,-0.001638
573.0,0.817636,575.287,1414.37,1412.85,0.804215,-0.00225008
576.0,0.808061,575.452,1419.35,1417.83,0.805811,-0.000653162
579.0,0.81105,575.617,1424.32,1422.81,0.806629,0.00016575
582.0,0.805604,575.782,1429.3,1427.78,0.805604,-0.000858328
585.0,0.822358,575.946,1434.27,1432.74,0.806365,-9.64079e-05
588.0,0.807533,576.111,1439.24,1437.71,0.80553,-0.000930488
591.0,0.803872,576.276,1444.2,1442.67,0.804697,-0.00176257
594.0,0.805713,576.441,1449.16,1447.63,0.805959,-0.000499665
597.0,0.806163,576.606,1454.12,1452.59,0.805959,-0.000498758
600.0,0.811337,576.771,1459.08,1457.54,0.805137,-0.00131986
603.0,0.803154,576.936,1464.03,1462.5,0.804468,-0.00198796
606.0,0.814121,577.1,1468.98,1467.44,0.80685,0.000394916
609.0,0.804927,577.265,1473.93,1472.39,0.805955,-0.000499201
612.0,0.805773,577.43,1478.88,1477.33,0.805955,-0.000498325
615.0,0.804774,577.595,1483.82,1482.27,0.80397,-0.00248245
618.0,0.807185,577.76,1488.76,1487.21,0.804283,-0.0021686
621.0,0.806333,577.925,1493.7,1492.14,0.807001,0.000550254
624.0,0.807423,578.089,1498.63,1497.08,0.807001,0.000551105
627.0,0.803167,578.254,1503.56,1502.01,0.80388,-0.00256904
630.0,0.834495,578.419,1508.49,1506.93,0.804799,-0.00164921
633.0,0.803396,578.584,1513.41,1511.85,0.804001,-0.00244638
636.0,0.804901,578.749,1518.34,1516.77,0.80429,-0.00215658
639.0,0.804233,578.914,1523.26,1521.69,0.80429,-0.00215579
642.0,0.805012,579.078,1528.17,1526.61,0.805012,-0.00143302
645.0,0.804598,579.243,1533.09,1531.52,0.804598,-0.00184627
648.0,0.803501,579.408,1538,1536.43,0.803501,-0.00294253
651.0,0.80425,579.573,1542.91,1541.33,0.80425,-0.00219283
654.0,0.804116,579.738,1547.82,1546.24,0.804265,-0.00217714
657.0,0.806826,579.903,1552.72,1551.14,0.806191,-0.000250463
660.0,0.804573,580.067,1557.62,1556.04,0.804573,-0.00186779
663.0,0.805492,580.232,1562.52,1560.93,0.804952,-0.00148813
666.0,0.814261,580.397,1567.41,1565.83,0.804475,-0.00196449
669.0,0.805396,580.562,1572.3,1570.72,0.804475,-0.00196386
672.0,0.88075,580.727,1577.19,1575.6,0.804379,-0.00205925
675.0,0.80477,580.892,1582.08,1580.49,0.803729,-0.00270865
678.0,0.803609,581.057,1586.96,1585.37,0.803609,-0.00282807
681.0,0.803349,581.221,1591.84,1590.25,0.803908,-0.00252852
684.0,0.803613,581.386,1596.72,1595.12,0.803908,-0.00252798
687.0,0.804339,581.551,1601.6,1600,0.803715,-0.00272047
690.0,0.803392,581.716,1606.47,1604.87,0.803715,-0.00271999
693.0,0.801588,581.881,1611.34,1609.73,0.803787,-0.00264753
696.0,0.802734,582.046,1616.21,1614.6,0.803899,-0.0025351
699.0,0.803282,582.21,1621.07,1619.46,0.807359,0.000925321
702.0,0.80961,582.375,1625.93,1624.32,0.803221,-0.00321227
705.0,0.80382,582.54,1630.79,1629.18,0.80382,-0.00261288
708.0,0.807336,582.705,1635.65,1634.03,0.804255,-0.00217751
711.0,0.805403,582.87,1640.5,1638.88,0.805043,-0.00138915
714.0,0.803933,583.035,1645.35,1643.73,0.805043,-0.0013888
717.0,0.802686,583.199,1650.2,1648.57,0.804692,-0.00173946
720.0,0.806066,583.364,1655.04,1653.42,0.805892,-0.000539142
723.0,0.803133,583.529,1659.89,1658.26,0.803596,-0.00283484
726.0,0.805499,583.694,1664.73,1663.1,0.805499,-0.000931556
729.0,0.804269,583.859,1669.56,1667.93,0.804294,-0.00213628
732.0,0.804557,584.024,1674.4,1672.76,0.804294,-0.00213603
735.0,0.80427,584.188,1679.23,1677.59,0.80427,-0.00215979
738.0,0.804631,584.353,1684.06,1682.42,0.80501,-0.00141957
741.0,0.804536,584.518,1688.88,1687.24,0.804598,-0.00183136
744.0,0.804287,584.683,1693.71,1692.06,0.804287,-0.00214216
747.0,0.807215,584.848,1698.53,1696.88,0.807215,0.000786029
750.0,0.803262,585.013,1703.35,1701.7,0.803489,-0.00293979
753.0,0.805742,585.178,1708.16,1706.51,0.805742,-0.000686623
756.0,0.805802,585.342,1712.97,1711.32,0.805802,-0.000626473
759.0,0.802745,585.507,1717.78,1716.13,0.804376,-0.00205233
762.0,0.804466,585.672,1722.59,1720.93,0.804466,-0.00196221
765.0,0.803837,585.837,1727.39,1725.73,0.803837,-0.00259112
768.0,0.805188,586.002,1732.2,1730.53,0.805188,-0.00124006
771.0,0.806408,586.167,1737,1735.33,0.805481,-0.000946999
774.0,0.809224,586.331,1741.79,1740.12,0.805152,-0.00127595
777.0,0.804962,586.496,1746.58,1744.91,0.804962,-0.00146589
780.0,0.802989,586.661,1751.38,1749.7,0.803134,-0.00329385
783.0,0.858395,586.826,1756.16,1754.49,0.803979,-0.00244883
786.0,0.807697,586.991,1760.95,1759.27,0.80298,-0.00344783
789.0,0.80749,587.156,1765.73,1764.05,0.805107,-0.00132084
792.0,0.806063,587.32,1770.51,1768.83,0.805107,-0.00132086
795.0,0.807498,587.485,1775.29,1773.61,0.802911,-0.0035169
798.0,0.816026,587.65,1780.06,1778.38,0.80591,-0.00051796
801.0,0.804448,587.815,1784.84,1783.15,0.804066,-0.00236203
804.0,0.803936,587.98,1789.61,1787.91,0.803622,-0.00280612
807.0,0.804438,588.145,1794.37,1792.68,0.803441,-0.00298722
810.0,0.802716,588.309,1799.14,1797.44,0.802716,-0.00371236
813.0,0.803664,588.474,1803.9,1802.2,0.804317,-0.00211153
816.0,0.8047,588.639,1808.66,1806.96,0.804317,-0.00211171
819.0,0.80371,588.804,1813.41,1811.71,0.80371,-0.0027189
822.0,0.802871,588.969,1818.17,1816.46,0.803921,-0.00250812
825.0,0.804691,589.134,1822.92,1821.21,0.804691,-0.00173835
828.0,0.80671,589.299,1827.66,1825.96,0.804617,-0.00181261
831.0,0.804656,589.463,1832.41,1830.7,0.804617,-0.00181287
834.0,0.803406,589.628,1837.15,1835.44,0.804315,-0.00211516
837.0,0.802379,589.793,1841.89,1840.18,0.804315,-0.00211545
840.0,0.803588,589.958,1846.63,1844.91,0.803588,-0.00284277
843.0,0.806387,590.123,1851.36,1849.65,0.804861,-0.00157011
846.0,0.808178,590.288,1856.1,1854.37,0.810179,0.00374754
849.0,0.80299,590.452,1860.83,1859.1,0.805558,-0.000873802
852.0,0.803404,590.617,1865.55,1863.83,0.805558,-0.000874159
855.0,0.805188,590.782,1870.28,1868.55,0.805604,-0.000828529
858.0,0.804456,590.947,1875,1873.27,0.803993,-0.00243991
861.0,0.805604,591.112,1879.72,1877.98,0.805604,-0.000829295
864.0,0.803637,591.277,1884.43,1882.7,0.806977,0.000543307
867.0,0.818656,591.441,1889.15,1887.41,0.806977,0.000542904
870.0,0.806089,591.606,1893.86,1892.12,0.805124,-0.0013105
873.0,0.809162,591.771,1898.57,1896.83,0.804086,-0.00234891
876.0,0.80497,591.936,1903.27,1901.53,0.803665,-0.00277032
879.0,0.804439,592.101,1907.98,1906.23,0.804439,-0.00199675
882.0,0.804532,592.266,1912.68,1910.93,0.80533,-0.0011062
885.0,0.80297,592.43,1917.38,1915.62,0.805082,-0.00135466
888.0,0.807617,592.595,1922.07,1920.32,0.805703,-0.000734125
891.0,0.804229,592.76,1926.76,1925.01,0.804123,-0.0023146
894.0,0.803922,592.925,1931.45,1929.7,0.804123,-0.00231509
897.0,0.80604,593.09,1936.14,1934.38,0.805092,-0.0013466
900.0,0.806171,593.255,1940.83,1939.06,0.804056,-0.00238312
903.0,0.80337,593.42,1945.51,1943.74,0.804056,-0.00238366
906.0,0.808163,593.584,1950.19,1948.42,0.80718,0.000739782
909.0,0.805361,593.749,1954.86,1953.1,0.805713,-0.000727775
912.0,0.805014,593.914,1959.54,1957.77,0.805014,-0.00142734
915.0,0.805827,594.079,1964.21,1962.44,0.804035,-0.00240691
918.0,0.805055,594.244,1968.88,1967.11,0.804035,-0.00240751
921.0,0.805085,594.409,1973.55,1971.77,0.805085,-0.00135812
924.0,0.804408,594.573,1978.21,1976.43,0.805158,-0.00128575
927.0,0.806549,594.738,1982.87,1981.09,0.806036,-0.000408387
930.0,0.802304,594.903,1987.53,1985.75,0.805192,-0.00125303
933.0,0.806563,595.068,1992.19,1990.4,0.806563,0.00011732
936.0,0.801734,595.233,1996.84,1995.05,0.805768,-0.000678334
939.0,0.808279,595.398,2001.49,1999.7,0.806974,0.000526993
942.0,0.803295,595.562,2006.14,2004.35,0.804764,-0.00168368
945.0,0.804626,595.727,2010.79,2008.99,0.804626,-0.00182237
948.0,0.806363,595.892,2015.43,2013.63,0.805115,-0.00133407
951.0,0.807091,596.057,2020.07,2018.27,0.808729,0.00227922
954.0,0.804913,596.222,2024.71,2022.91,0.805556,-0.000894491
957.0,0.804435,596.387,2029.35,2027.54,0.804435,-0.0020162
960.0,0.80424,596.551,2033.98,2032.17,0.80424,-0.00221193
963.0,0.804956,596.716,2038.61,2036.8,0.807208,0.00075532
966.0,0.804385,596.881,2043.24,2041.43,0.804385,-0.00206843
969.0,0.808988,597.046,2047.86,2046.05,0.804869,-0.00158518
972.0,0.806937,597.211,2052.49,2050.67,0.806937,0.000482059
975.0,0.810755,597.376,2057.11,2055.29,0.806763,0.000307302
978.0,0.805776,597.541,2061.73,2059.91,0.805776,-0.000680449
981.0,0.803144,597.705,2066.34,2064.52,0.805353,-0.00110421
984.0,0.807384,597.87,2070.95,2069.13,0.807317,0.000859018
987.0,0.807633,598.035,2075.56,2073.74,0.807317,0.00085825
990.0,0.805793,598.2,2080.17,2078.34,0.804994,-0.00146551
993.0,0.805447,598.365,2084.78,2082.95,0.804994,-0.00146629
996.0,0.810914,598.53,2089.38,2087.55,0.805386,-0.00107507
999.0,0.81275,598.694,2093.98,2092.15,0.806363,-9.88582e-05
1002.0,0.806403,598.859,2098.58,2096.74,0.806396,-6.66458e-05
1005.0,0.804772,599.024,2103.17,2101.33,0.804772,-0.00169144
1008.0,0.809535,599.189,2107.77,2105.93,0.805815,-0.000649238
1011.0,0.80655,599.354,2112.36,2110.51,0.805815,-0.000650038
1014.0,0.804764,599.519,2116.94,2115.1,0.804764,-0.00170184
1017.0,0.804535,599.683,2121.53,2119.68,0.805454,-0.00101265
1020.0,0.80708,599.848,2126.11,2124.26,0.808316,0.00184853
1023.0,0.806221,600.013,2130.69,2128.84,0.806742,0.000273718
1026.0,0.804371,600.178,2135.27,2133.41,0.806427,-4.20938e-05
1029.0,0.808166,600.343,2139.84,2137.99,0.806683,0.00021309
1032.0,0.807295,600.508,2144.42,2142.56,0.807295,0.000824278
1035.0,0.804417,600.672,2148.99,2147.13,0.807306,0.000834475
1038.0,0.804089,600.837,2153.55,2151.69,0.806212,-0.000260326
1041.0,0.80716,601.002,2158.12,2156.25,0.807634,0.00116087
1044.0,0.817308,601.167,2162.68,2160.81,0.807634,0.00116006
1047.0,0.80452,601.332,2167.24,2165.37,0.806194,-0.00028074
1050.0,0.806708,601.497,2171.8,2169.93,0.806708,0.000232453
1053.0,0.805963,601.662,2176.35,2174.48,0.806087,-0.000389349
1056.0,0.806179,601.826,2180.9,2179.03,0.806179,-0.000298146
1059.0,0.806982,601.991,2185.45,2183.58,0.807043,0.000565055
1062.0,0.806232,602.156,2190,2188.12,0.807172,0.000693264
1065.0,0.805509,602.321,2194.55,2192.67,0.807172,0.000692482
1068.0,0.808698,602.486,2199.09,2197.21,0.807534,0.0010537
1071.0,0.808547,602.651,2203.63,2201.74,0.808123,0.00164194
1074.0,0.808257,602.815,2208.17,2206.28,0.808253,0.00177119
1077.0,0.807105,602.98,2212.7,2210.81,0.807105,0.000622448
1080.0,0.808868,603.145,2217.23,2215.34,0.808115,0.00163172
1083.0,0.811239,603.31,2221.76,2219.87,0.811239,0.004755
1086.0,0.807489,603.475,2226.29,2224.4,0.811208,0.00472329
1089.0,0.809633,603.64,2230.82,2228.92,0.809633,0.00314758
1092.0,0.808609,603.804,2235.34,2233.44,0.808116,0.00162988
1095.0,0.815003,603.969,2239.86,2237.96,0.808116,0.00162919
1098.0,0.81086,604.134,2244.38,2242.47,0.807899,0.00141149
1101.0,0.812791,604.299,2248.89,2246.99,0.809555,0.00306682
1104.0,0.808664,604.464,2253.41,2251.5,0.809555,0.00306615
1107.0,0.808946,604.629,2257.92,2256,0.808839,0.0023495
1110.0,0.807601,604.794,2262.42,2260.51,0.808839,0.00234886
1113.0,0.811318,604.958,2266.93,2265.01,0.810841,0.00435024
1116.0,0.808554,605.123,2271.43,2269.51,0.809481,0.00298963
1119.0,0.81315,605.288,2275.93,2274.01,0.812052,0.00556003
1122.0,0.811389,605.453,2280.43,2278.51,0.809843,0.00335043
1125.0,0.811046,605.618,2284.93,2283,0.809843,0.00334984
1128.0,0.811084,605.783,2289.42,2287.49,0.809657,0.00316326
1131.0,0.80992,605.947,2293.91,2291.98,0.808676,0.00218168
1134.0,0.812487,606.112,2298.4,2296.47,0.809596,0.00310113
1137.0,0.813033,606.277,2302.88,2300.95,0.811793,0.00529759
1140.0,0.810008,606.442,2307.37,2305.43,0.811162,0.00466605
1143.0,0.808702,606.607,2311.85,2309.91,0.81038,0.00388353
1146.0,0.812304,606.772,2316.33,2314.39,0.812129,0.00563202
1149.0,0.809439,606.936,2320.8,2318.86,0.809541,0.00304353
1152.0,0.81042,607.101,2325.28,2323.33,0.808616,0.00211806
1155.0,0.816706,607.266,2329.75,2327.8,0.809954,0.00345562
1158.0,0.812303,607.431,2334.22,2332.27,0.810683,0.00418419
1161.0,0.811714,607.596,2338.68,2336.73,0.810918,0.00441878
1164.0,0.810973,607.761,2343.15,2341.19,0.809737,0.00323737
1167.0,0.81659,607.925,2347.61,2345.65,0.809737,0.00323698
1170.0,0.808961,608.09,2352.07,2350.11,0.809512,0.0030116
1173.0,0.814403,608.255,2356.52,2354.57,0.812242,0.00574124
1176.0,0.809558,608.42,2360.98,2359.02,0.811795,0.00529389
1179.0,0.810206,608.585,2365.43,2363.47,0.810906,0.00440454
1182.0,0.809266,608.75,2369.88,2367.91,0.810713,0.00421121
1185.0,0.809057,608.915,2374.33,2372.36,0.812669,0.0061669
1188.0,0.81127,609.079,2378.77,2376.8,0.811822,0.00531959
1191.0,0.81106,609.244,2383.21,2381.24,0.81106,0.0045573
1194.0,0.812684,609.409,2387.65,2385.68,0.812684,0.00618101
1197.0,0.811457,609.574,2392.09,2390.12,0.813552,0.00704872
1200.0,0.813873,609.739,2396.52,2394.55,0.813873,0.00736944
1203.0,0.810992,609.904,2400.96,2398.98,0.810839,0.00433515
1206.0,0.812023,610.068,2405.39,2403.41,0.81171,0.00520588
1209.0,0.811298,610.233,2409.82,2407.83,0.810909,0.00440462
1212.0,0.811569,610.398,2414.24,2412.26,0.811194,0.00468937
1215.0,0.81198,610.563,2418.66,2416.68,0.811571,0.00506612
1218.0,0.810241,610.728,2423.08,2421.1,0.810241,0.00373587
1221.0,0.814817,610.893,2427.5,2425.51,0.811006,0.00450064
1224.0,0.811405,611.057,2431.92,2429.93,0.811006,0.00450042
1227.0,0.812018,611.222,2436.33,2434.34,0.810751,0.00424521
1230.0,0.811564,611.387,2440.74,2438.75,0.811388,0.00488201
1233.0,0.811599,611.552,2445.15,2443.15,0.811593,0.00508681
1236.0,0.809371,611.717,2449.56,2447.56,0.810835,0.00432863
1239.0,0.811855,611.882,2453.96,2451.96,0.811452,0.00494546
1242.0,0.812729,612.046,2458.36,2456.36,0.811452,0.00494529
1245.0,0.81537,612.211,2462.76,2460.75,0.810568,0.00406113
1248.0,0.811395,612.376,2467.16,2465.15,0.813104,0.00659699
1251.0,0.811457,612.541,2471.55,2469.54,0.811457,0.00494985
1254.0,0.811455,612.706,2475.95,2473.93,0.811455,0.00494771
1257.0,0.813215,612.871,2480.34,2478.32,0.813215,0.00670757
1260.0,0.812011,613.036,2484.72,2482.71,0.812011,0.00550344
1263.0,0.808993,613.2,2489.11,2487.09,0.809259,0.00275131
1266.0,0.81229,613.365,2493.49,2491.47,0.81229,0.0057822
1269.0,0.811775,613.53,2497.87,2495.85,0.811775,0.00526709
1272.0,0.810813,613.695,2502.25,2500.22,0.810813,0.00430499
1275.0,0.815322,613.86,2506.63,2504.6,0.811456,0.00494789
1278.0,0.810053,614.025,2511,2508.97,0.811105,0.00459681
1281.0,0.809867,614.189,2515.37,2513.34,0.810368,0.00385974
1284.0,0.810664,614.354,2519.74,2517.7,0.810368,0.00385968
1287.0,0.826807,614.519,2524.1,2522.07,0.811139,0.00463065
1290.0,0.811419,614.684,2528.47,2526.43,0.811139,0.00463064
1293.0,0.813507,614.849,2532.83,2530.79,0.812108,0.00559963
1296.0,0.813271,615.014,2537.19,2535.15,0.812694,0.00618563
1299.0,0.812303,615.178,2541.55,2539.5,0.811143,0.00463463
1302.0,0.8141,615.343,2545.9,2543.85,0.811143,0.00463464
1305.0,0.811487,615.508,2550.25,2548.2,0.811309,0.00480066
1308.0,0.809644,615.673,2554.6,2552.55,0.811795,0.0052867
1311.0,0.80987,615.838,2558.95,2556.9,0.811795,0.00528675
1314.0,0.810997,616.003,2563.3,2561.24,0.811698,0.00518981
1317.0,0.812169,616.167,2567.64,2565.58,0.811825,0.00531688
1320.0,0.816273,616.332,2571.98,2569.92,0.812268,0.00575995
1323.0,0.824059,616.497,2576.32,2574.26,0.811867,0.00535902
1326.0,0.813476,616.662,2580.65,2578.59,0.810983,0.0044751
1329.0,0.81208,616.827,2584.99,2582.92,0.811828,0.00532019
1332.0,0.811499,616.992,2589.32,2587.25,0.81135,0.00484227
1335.0,0.814783,617.157,2593.65,2591.58,0.810686,0.00417837
1338.0,0.815205,617.321,2597.97,2595.9,0.813176,0.00666848
1341.0,0.812739,617.486,2602.3,2600.22,0.813146,0.00663858
1344.0,0.812794,617.651,2606.62,2604.54,0.812932,0.00642469
1347.0,0.81544,617.816,2610.94,2608.86,0.814263,0.0077558
1350.0,0.819213,617.981,2615.26,2613.18,0.814263,0.0077559
1353.0,0.812979,618.146,2619.57,2617.49,0.812711,0.00620401
1356.0,0.812215,618.31,2623.89,2621.8,0.812382,0.00587512
1359.0,0.812752,618.475,2628.2,2626.11,0.812752,0.00624522
1362.0,0.812762,618.64,2632.5,2630.42,0.812762,0.00625533
1365.0,0.811274,618.805,2636.81,2634.72,0.811776,0.00526944
1368.0,0.813168,618.97,2641.11,2639.02,0.813168,0.00666154
1371.0,0.811072,619.135,2645.42,2643.32,0.812125,0.00561865
1374.0,0.811389,619.299,2649.71,2647.62,0.812125,0.00561876
1377.0,0.814112,619.464,2654.01,2651.91,0.814571,0.00806486
1380.0,0.816277,619.629,2658.31,2656.21,0.815491,0.00898497
1383.0,0.812096,619.794,2662.6,2660.5,0.811967,0.00546108
1386.0,0.814337,619.959,2666.89,2664.78,0.814337,0.00783119
1389.0,0.81494,620.124,2671.18,2669.07,0.815099,0.00859331
1392.0,0.823671,620.288,2675.46,2673.35,0.812356,0.00585043
1395.0,0.815337,620.453,2679.74,2677.63,0.814395,0.00788954
1398.0,0.81232,620.618,2684.03,2681.91,0.813052,0.00654666
1401.0,0.812198,620.783,2688.3,2686.19,0.812566,0.00606078
1404.0,0.809776,620.948,2692.58,2690.46,0.812566,0.0060609
1407.0,0.809548,621.113,2696.85,2694.74,0.812608,0.00610303
1410.0,0.814846,621.278,2701.13,2699.01,0.813368,0.00686316
1413.0,0.814121,621.442,2705.4,2703.27,0.814121,0.0076163
1416.0,0.814366,621.607,2709.66,2707.54,0.814366,0.00786144
1419.0,0.81496,621.772,2713.93,2711.8,0.81496,0.00845558
1422.0,0.819618,621.937,2718.19,2716.06,0.813823,0.00731871
1425.0,0.812956,622.102,2722.45,2720.32,0.812956,0.00645186
1428.0,0.821717,622.267,2726.71,2724.58,0.814214,0.00771001
1431.0,0.812801,622.431,2730.96,2728.83,0.813958,0.00745415
1434.0,0.815148,622.596,2735.22,2733.08,0.813958,0.0074543
1437.0,0.816453,622.761,2739.47,2737.33,0.813058,0.00655445
1440.0,0.812111,622.926,2743.72,2741.58,0.81397,0.0074666
1443.0,0.814785,623.091,2747.97,2745.82,0.814672,0.00816875
1446.0,0.8139,623.256,2752.21,2750.07,0.8139,0.0073969
1449.0,0.810887,623.42,2756.45,2754.31,0.812692,0.00618905
1452.0,0.811258,623.585,2760.69,2758.55,0.811939,0.0054362
1455.0,0.812886,623.75,2764.93,2762.78,0.812571,0.00606835
1458.0,0.809722,623.915,2769.17,2767.01,0.812305,0.00580251
1461.0,0.824762,624.08,2773.4,2771.25,0.812679,0.00617668
1464.0,0.8105,624.245,2777.63,2775.48,0.812626,0.00612385
1467.0,0.81024,624.409,2781.86,2779.7,0.810561,0.00405903
1470.0,0.809048,624.574,2786.09,2783.93,0.811942,0.00544023
1473.0,0.811929,624.739,2790.31,2788.15,0.811971,0.00546944
1476.0,0.81214,624.904,2794.53,2792.37,0.811688,0.00518665
1479.0,0.812628,625.069,2798.75,2796.59,0.812628,0.00612686
1482.0,0.810083,625.234,2802.97,2800.8,0.811483,0.00498208
1485.0,0.811338,625.399,2807.19,2805.02,0.811483,0.00498231
1488.0,0.80992,625.563,2811.4,2809.23,0.811914,0.00541355
1491.0,0.811221,625.728,2815.61,2813.44,0.813014,0.0065138
1494.0,0.810564,625.893,2819.82,2817.65,0.811521,0.00502105
1497.0,0.809777,626.058,2824.03,2821.85,0.811521,0.00502131
1500.0,0.807883,626.223,2828.23,2826.05,0.811153,0.00465358
1503.0,0.811403,626.388,2832.44,2830.25,0.810972,0.00447286
1506.0,0.81164,626.552,2836.64,2834.45,0.81164,0.00514115
1509.0,0.808189,626.717,2840.83,2838.65,0.811617,0.00511844
1512.0,0.811072,626.882,2845.03,2842.84,0.811163,0.00466474
1515.0,0.824799,627.047,2849.22,2847.03,0.812357,0.00585904
1518.0,0.809796,627.212,2853.41,2851.22,0.810973,0.00447535
1521.0,0.810921,627.377,2857.6,2855.41,0.810973,0.00447566
1524.0,0.811912,627.541,2861.79,2859.59,0.810893,0.00439598
1527.0,0.812009,627.706,2865.97,2863.78,0.811173,0.0046763
1530.0,0.811671,627.871,2870.16,2867.96,0.811275,0.00477863
1533.0,0.811803,628.036,2874.34,2872.14,0.81097,0.00447396
1536.0,0.810298,628.201,2878.52,2876.31,0.810298,0.0038023
1539.0,0.812183,628.366,2882.69,2880.49,0.811313,0.00481765
1542.0,0.810093,628.53,2886.87,2884.66,0.813277,0.00678201
1545.0,0.817969,628.695,2891.04,2888.83,0.813277,0.00678239
1548.0,0.811164,628.86,2895.21,2892.99,0.809894,0.00339976
1551.0,0.810776,629.025,2899.37,2897.16,0.809894,0.00340015
1554.0,0.809822,629.19,2903.54,2901.32,0.809822,0.00332855
1557.0,0.810588,629.355,2907.7,2905.48,0.810588,0.00409497
1560.0,0.810106,629.52,2911.86,2909.64,0.810335,0.00384239
1563.0,0.809749,629.684,2916.02,2913.8,0.809749,0.00325683
1566.0,0.809858,629.849,2920.18,2917.95,0.809858,0.00336629
1569.0,0.806884,630.014,2924.33,2922.1,0.808887,0.00239577
1572.0,0.81019,630.179,2928.48,2926.25,0.813305,0.00681425
1575.0,0.811398,630.344,2932.63,2930.4,0.811398,0.00490775
1578.0,0.810366,630.509,2936.78,2934.55,0.810786,0.00429626
1581.0,0.810247,630.673,2940.93,2938.69,0.811037,0.00454778
1584.0,0.810615,630.838,2945.07,2942.83,0.811037,0.00454831
1587.0,0.81189,631.003,2949.21,2946.97,0.81189,0.00540185
1590.0,0.809853,631.168,2953.35,2951.11,0.810993,0.00450539
1593.0,0.810659,631.333,2957.49,2955.24,0.810659,0.00417194
1596.0,0.822579,631.498,2961.62,2959.38,0.81357,0.0070835
1599.0,0.808786,631.662,2965.75,2963.51,0.810489,0.00400307
1602.0,0.811008,631.827,2969.88,2967.64,0.810489,0.00400365
1605.0,0.811515,631.992,2974.01,2971.76,0.809758,0.00327324
1608.0,0.808457,632.157,2978.14,2975.89,0.809731,0.00324685
1611.0,0.80685,632.322,2982.26,2980.01,0.80786,0.00137647
1614.0,0.809662,632.487,2986.38,2984.13,0.809662,0.0031791
1617.0,0.807738,632.651,2990.5,2988.24,0.809685,0.00320275
1620.0,0.808818,632.816,2994.62,2992.36,0.809049,0.00256741
1623.0,0.806924,632.981,2998.73,2996.47,0.809681,0.00320008
1626.0,0.811971,633.146,3002.85,3000.58,0.810337,0.00385677
1629.0,0.808488,633.311,3006.96,3004.69,0.809909,0.00342946
1632.0,0.810444,633.476,3011.07,3008.8,0.810444,0.00396517
1635.0,0.807918,633.641,3015.17,3012.91,0.809339,0.00286088
1638.0,0.808536,633.805,3019.28,3017.01,0.807725,0.00124761
1641.0,0.808545,633.97,3023.38,3021.11,0.808219,0.00174236
1644.0,0.809387,634.135,3027.48,3025.21,0.808219,0.00174312
1647.0,0.808529,634.3,3031.58,3029.3,0.807704,0.00122891
1650.0,0.808614,634.465,3035.68,3033.4,0.809035,0.0025607
1653.0,0.809499,634.63,3039.77,3037.49,0.809499,0.00302551
1656.0,0.809276,634.794,3043.86,3041.58,0.809276,0.00280334
1659.0,0.80819,634.959,3047.95,3045.67,0.80884,0.00236818
1662.0,0.810166,635.124,3052.04,3049.75,0.809041,0.00257003
1665.0,0.808629,635.289,3056.12,3053.84,0.808629,0.00215891
1668.0,0.808189,635.454,3060.21,3057.92,0.808555,0.00208579
1671.0,0.807637,635.619,3064.29,3062,0.80862,0.00215169
1674.0,0.813992,635.783,3068.37,3066.07,0.808799,0.00233162
1677.0,0.805437,635.948,3072.44,3070.15,0.807233,0.000766548
1680.0,0.807572,636.113,3076.52,3074.22,0.807058,0.000592484
1683.0,0.806529,636.278,3080.59,3078.29,0.806649,0.000184425
1686.0,0.806947,636.443,3084.66,3082.36,0.806569,0.000105367
1689.0,0.80741,636.608,3088.73,3086.43,0.80741,0.000947309
1692.0,0.808029,636.772,3092.8,3090.49,0.808029,0.00156725
1695.0,0.807232,636.937,3096.86,3094.55,0.807232,0.000771203
1698.0,0.809762,637.102,3100.92,3098.61,0.809762,0.00330215
1701.0,0.80601,637.267,3104.98,3102.67,0.80866,0.00220112
1704.0,0.80431,637.432,3109.04,3106.73,0.807964,0.00150609
1707.0,0.808829,637.597,3113.1,3110.78,0.808355,0.00189806
1710.0,0.807223,637.762,3117.15,3114.83,0.807575,0.00111905
1713.0,0.805304,637.926,3121.2,3118.88,0.807575,0.00112004
1716.0,0.806745,638.091,3125.25,3122.93,0.806745,0.000291033
1719.0,0.807874,638.256,3129.3,3126.98,0.807523,0.00107003
1722.0,0.810038,638.421,3133.34,3131.02,0.807339,0.000887044
1725.0,0.807968,638.586,3137.39,3135.06,0.806591,0.000140067
1728.0,0.807867,638.751,3141.43,3139.1,0.807788,0.00133809
1731.0,0.806382,638.915,3145.47,3143.14,0.807788,0.00133913
1734.0,0.805684,639.08,3149.51,3147.17,0.807579,0.00113117
1737.0,0.809794,639.245,3153.54,3151.21,0.807579,0.00113221
1740.0,0.808877,639.41,3157.57,3155.24,0.807033,0.000587263
1743.0,0.805349,639.575,3161.6,3159.27,0.806283,-0.000161683
1746.0,0.806198,639.74,3165.63,3163.29,0.806919,0.000475365
1749.0,0.810078,639.904,3169.66,3167.32,0.808395,0.00195242
1752.0,0.808225,640.069,3173.68,3171.34,0.80675,0.000308493
1755.0,0.804662,640.234,3177.71,3175.36,0.80675,0.000309575
1758.0,0.806654,640.399,3181.73,3179.38,0.806931,0.000491653
1761.0,0.805328,640.564,3185.75,3183.4,0.805881,-0.000557264
1764.0,0.805728,640.729,3189.76,3187.41,0.805881,-0.000556185
1767.0,0.806609,640.893,3193.78,3191.42,0.807567,0.0011309
1770.0,0.804578,641.058,3197.79,3195.43,0.806848,0.000412986
1773.0,0.807915,641.223,3201.8,3199.44,0.805964,-0.000469931
1776.0,0.807039,641.388,3205.81,3203.45,0.805964,-0.000468847
1779.0,0.80394,641.553,3209.81,3207.45,0.806584,0.000152235
1782.0,0.807231,641.718,3213.82,3211.45,0.806996,0.000565312
1785.0,0.806087,641.883,3217.82,3215.45,0.806772,0.000342393
1788.0,0.806979,642.047,3221.82,3219.45,0.806087,-0.000341527
1791.0,0.805083,642.212,3225.82,3223.45,0.805233,-0.00119445
1794.0,0.805958,642.377,3229.81,3227.44,0.805459,-0.000967379
1797.0,0.805299,642.542,3233.81,3231.43,0.805459,-0.000966316
1800.0,0.806126,642.707,3237.8,3235.42,0.805762,-0.000662262
1803.0,0.806529,642.872,3241.79,3239.41,0.806504,8.07864e-05
1806.0,0.809565,643.036,3245.77,3243.4,0.806504,8.18376e-05
1809.0,0.817014,643.201,3249.76,3247.38,0.805705,-0.000716102
1812.0,0.804362,643.366,3253.74,3251.36,0.805505,-0.000915044
1815.0,0.806041,643.531,3257.72,3255.34,0.808515,0.00209601
1818.0,0.803593,643.696,3261.7,3259.32,0.806504,8.60645e-05
1821.0,0.804605,643.861,3265.68,3263.29,0.806309,-0.000107884
1824.0,0.805819,644.025,3269.66,3267.27,0.805842,-0.000573839
1827.0,0.803843,644.19,3273.63,3271.24,0.805988,-0.000426801
1830.0,0.808694,644.355,3277.6,3275.21,0.805988,-0.00042577
1833.0,0.805491,644.52,3281.57,3279.18,0.804761,-0.00165173
1836.0,0.80394,644.685,3285.54,3283.14,0.804797,-0.00161471
1839.0,0.806188,644.85,3289.5,3287.1,0.805183,-0.00122771
1842.0,0.804351,645.015,3293.47,3291.07,0.805228,-0.00118171
1845.0,0.804403,645.179,3297.43,3295.02,0.805821,-0.000587731
1848.0,0.808545,645.344,3301.39,3298.98,0.8069,0.000492243
1851.0,0.804587,645.509,3305.34,3302.94,0.805109,-0.00129778
1854.0,0.809236,645.674,3309.3,3306.89,0.805109,-0.00129681
1857.0,0.8019,645.839,3313.25,3310.84,0.804513,-0.00189184
1860.0,0.805853,646.004,3317.2,3314.79,0.805853,-0.0005509
1863.0,0.805737,646.168,3321.15,3318.74,0.806734,0.000331038
1866.0,0.803996,646.333,3325.1,3322.68,0.805058,-0.00134402
1869.0,0.803149,646.498,3329.04,3326.63,0.805058,-0.0013431
1872.0,0.805842,646.663,3332.98,3330.57,0.805732,-0.000668192
1875.0,0.807172,646.828,3336.93,3334.51,0.803487,-0.00291229
1878.0,0.807015,646.993,3340.86,3338.44,0.80495,-0.00144841
1881.0,0.804745,647.157,3344.8,3342.38,0.80495,-0.00144753
1884.0,0.802391,647.322,3348.74,3346.31,0.805038,-0.00135866
1887.0,0.808126,647.487,3352.67,3350.24,0.805057,-0.0013388
1890.0,0.805154,647.652,3356.6,3354.17,0.805154,-0.00124095
1893.0,0.803637,647.817,3360.53,3358.1,0.804248,-0.00214611
1896.0,0.8087,647.982,3364.46,3362.02,0.805167,-0.00122628
1899.0,0.803643,648.146,3368.38,3365.95,0.805167,-0.00122545
1902.0,0.802699,648.311,3372.3,3369.87,0.804634,-0.00175764
1905.0,0.804249,648.476,3376.22,3373.79,0.80471,-0.00168084
1908.0,0.804226,648.641,3380.14,3377.7,0.804936,-0.00145406
1911.0,0.804381,648.806,3384.06,3381.62,0.804623,-0.0017663
1914.0,0.802407,648.971,3387.98,3385.53,0.804623,-0.00176555
1917.0,0.804132,649.136,3391.89,3389.44,0.804983,-0.00140483
1920.0,0.804921,649.3,3395.8,3393.35,0.804983,-0.00140412
1923.0,0.802681,649.465,3399.71,3397.26,0.80407,-0.00231642
1926.0,0.802286,649.63,3403.62,3401.16,0.803922,-0.00246375
1929.0,0.806198,649.795,3407.52,3405.07,0.803989,-0.0023961
1932.0,0.810233,649.96,3411.42,3408.97,0.805149,-0.00123546
1935.0,0.80523,650.125,3415.32,3412.87,0.804006,-0.00237782
1938.0,0.808243,650.289,3419.22,3416.76,0.803048,-0.00333521
1941.0,0.804602,650.454,3423.12,3420.66,0.802928,-0.00345461
1944.0,0.809081,650.619,3427.02,3424.55,0.803597,-0.00278503
1947.0,0.802936,650.784,3430.91,3428.44,0.803597,-0.00278446
1950.0,0.80376,650.949,3434.8,3432.33,0.804999,-0.00138191
1953.0,0.80476,651.114,3438.69,3436.22,0.804915,-0.00146538
1956.0,0.80516,651.278,3442.58,3440.11,0.80516,-0.00121986
1959.0,0.802481,651.443,3446.46,3443.99,0.803597,-0.00278235
1962.0,0.802141,651.608,3450.34,3447.87,0.802564,-0.00381485
1965.0,0.804164,651.773,3454.23,3451.75,0.803028,-0.00335039
1968.0,0.810709,651.938,3458.11,3455.63,0.805032,-0.00134596
1971.0,0.803484,652.103,3461.98,3459.5,0.804327,-0.00205054
1974.0,0.803973,652.267,3465.86,3463.38,0.803973,-0.00240413
1977.0,0.802627,652.432,3469.73,3467.25,0.804049,-0.00232775
1980.0,0.805732,652.597,3473.6,3471.12,0.804049,-0.00232738
1983.0,0.804236,652.762,3477.47,3474.99,0.802739,-0.00363704
1986.0,0.803567,652.927,3481.34,3478.85,0.803567,-0.00280872
1989.0,0.804645,653.092,3485.21,3482.72,0.805092,-0.00128343
1992.0,0.804741,653.257,3489.07,3486.58,0.806184,-0.000191139
1995.0,0.80538,653.421,3492.93,3490.44,0.806184,-0.000190854
1998.0,0.80392,653.586,3496.79,3494.3,0.804489,-0.00188557
2001.0,0.805281,653.751,3500.65,3498.15,0.803992,-0.0023823
2004.0,0.805128,653.916,3504.51,3502.01,0.805128,-0.00124604
2007.0,0.803037,654.081,3508.36,3505.86,0.805651,-0.000722799
2010.0,0.803361,654.246,3512.21,3509.71,0.805475,-0.000898569
2013.0,0.805803,654.41,3516.06,3513.56,0.805475,-0.000898348
2016.0,0.803581,654.575,3519.91,3517.4,0.803763,-0.00261014
2019.0,0.805044,654.74,3523.76,3521.25,0.803763,-0.00260995
2022.0,0.802033,654.905,3527.6,3525.09,0.802968,-0.00340479
2025.0,0.805165,655.07,3531.44,3528.93,0.805165,-0.00120765
2028.0,0.803261,655.235,3535.28,3532.77,0.804279,-0.00209352
2031.0,0.803949,655.399,3539.12,3536.61,0.803949,-0.00242342
2034.0,0.805411,655.564,3542.96,3540.44,0.805107,-0.00126534
2037.0,0.803266,655.729,3546.79,3544.27,0.803266,-0.00310627
2040.0,0.804992,655.894,3550.63,3548.1,0.804992,-0.00138023
2043.0,0.807984,656.059,3554.46,3551.93,0.80514,-0.00123221
2046.0,0.804403,656.224,3558.28,3555.76,0.804403,-0.0019692
2047.0,0.805824,656.279,3559.56,3557.04,0.804403,-0.0019692