File: data/processed/processed_data/2024-10-11/2024-10-11_sucrosepowder_n_n_n_solid_10000_0_5.csv
Pixels #,Intensity (a.u.),Wavelength (nm),Raman shift (cm-1),Raman shift (cm-1) adjusted,Filtered Intensity (a.u.),Baselined Filtered Intensity (a.u.)
0.0,0.805623,543.803,407.968,406.929,0.8049,-0.0122025
3.0,0.803382,543.967,413.541,412.499,0.8049,-0.0122026
6.0,0.805179,544.132,419.11,418.065,0.805179,-0.0119237
9.0,0.807257,544.297,424.676,423.628,0.806436,-0.010667
12.0,0.810533,544.462,430.238,429.188,0.805463,-0.0116403
15.0,0.807764,544.627,435.797,434.744,0.805463,-0.0116408
18.0,0.807204,544.792,441.353,440.297,0.804702,-0.0124023
21.0,0.806388,544.957,446.905,445.847,0.804319,-0.0127859
24.0,0.803392,545.121,452.454,451.393,0.804169,-0.0129366
27.0,0.804939,545.286,457.999,456.936,0.804656,-0.0124505
30.0,0.80552,545.451,463.542,462.476,0.806442,-0.0106654
33.0,0.806543,545.616,469.08,468.012,0.808671,-0.00843741
36.0,0.804474,545.781,474.616,473.545,0.806094,-0.0110155
39.0,0.83679,545.946,480.148,479.075,0.808547,-0.00856368
42.0,0.806387,546.11,485.677,484.601,0.808076,-0.00903585
45.0,0.812369,546.275,491.202,490.124,0.812369,-0.0047441
48.0,0.822403,546.44,496.725,495.643,0.822403,0.00528862
51.0,0.829929,546.605,502.243,501.16,0.829929,0.0128134
54.0,0.854125,546.77,507.759,506.672,0.845151,0.0280342
57.0,0.853036,546.935,513.271,512.182,0.85382,0.0367024
60.0,0.863905,547.099,518.78,517.688,0.863905,0.0467868
63.0,0.86707,547.264,524.285,523.191,0.86707,0.0499517
66.0,0.873832,547.429,529.788,528.691,0.873832,0.0567137
69.0,0.878658,547.594,535.287,534.187,0.879372,0.0622537
72.0,0.882691,547.759,540.782,539.68,0.882691,0.0655727
75.0,0.884608,547.924,546.275,545.17,0.884608,0.0674897
78.0,0.885742,548.088,551.763,550.656,0.885742,0.0686237
81.0,0.886927,548.253,557.249,556.139,0.885487,0.0683687
84.0,0.882896,548.418,562.732,561.619,0.883152,0.0660337
87.0,0.882629,548.583,568.211,567.096,0.883519,0.0664007
90.0,0.885193,548.748,573.686,572.569,0.88489,0.0677717
93.0,0.883091,548.913,579.159,578.039,0.88489,0.0677717
96.0,0.88509,549.078,584.628,583.506,0.88509,0.0679717
99.0,0.887425,549.242,590.094,588.969,0.885892,0.0687737
102.0,0.887718,549.407,595.557,594.429,0.885892,0.0687737
105.0,0.886872,549.572,601.016,599.886,0.886872,0.0697537
108.0,0.885748,549.737,606.472,605.339,0.885748,0.0686297
111.0,0.884191,549.902,611.925,610.79,0.88513,0.0680117
114.0,0.884105,550.067,617.375,616.237,0.885238,0.0681197
117.0,0.88351,550.231,622.821,621.68,0.885238,0.0681197
120.0,0.885277,550.396,628.264,627.121,0.885277,0.0681587
123.0,0.884898,550.561,633.704,632.558,0.887254,0.0701357
126.0,0.886748,550.726,639.14,637.992,0.889083,0.0719647
129.0,0.886912,550.891,644.574,643.423,0.887238,0.0701197
132.0,0.889925,551.056,650.004,648.85,0.887767,0.0706487
135.0,0.885204,551.22,655.431,654.274,0.885204,0.0680857
138.0,0.883359,551.385,660.854,659.695,0.885681,0.0685627
141.0,0.885658,551.55,666.274,665.113,0.887951,0.0708327
144.0,0.888808,551.715,671.691,670.528,0.888808,0.0716897
147.0,0.886986,551.88,677.105,675.939,0.88963,0.0725117
150.0,0.89111,552.045,682.516,681.347,0.89111,0.0739917
153.0,0.891599,552.209,687.923,686.752,0.892113,0.0749947
156.0,0.895039,552.374,693.327,692.153,0.894952,0.0778337
159.0,0.90676,552.539,698.728,697.552,0.898693,0.0815747
162.0,0.900062,552.704,704.126,702.947,0.900051,0.0829327
165.0,0.901002,552.869,709.52,708.339,0.901002,0.0838837
168.0,0.903491,553.034,714.912,713.727,0.903491,0.0863727
171.0,0.905885,553.199,720.3,719.113,0.907813,0.0906947
174.0,0.909948,553.363,725.684,724.495,0.909948,0.0928297
177.0,0.911255,553.528,731.066,729.874,0.91398,0.0968617
180.0,0.919727,553.693,736.444,735.25,0.919727,0.102609
183.0,0.9241,553.858,741.82,740.623,0.925649,0.108531
186.0,0.928437,554.023,747.192,745.992,0.930709,0.113591
189.0,0.932117,554.188,752.561,751.359,0.932117,0.114999
192.0,0.939079,554.352,757.926,756.722,0.93728,0.120162
195.0,0.943323,554.517,763.289,762.082,0.941737,0.124619
198.0,0.948733,554.682,768.648,767.438,0.948157,0.131039
201.0,0.953902,554.847,774.004,772.792,0.953902,0.136784
204.0,0.963081,555.012,779.357,778.142,0.963081,0.145963
207.0,0.971801,555.177,784.706,783.489,0.972992,0.155874
210.0,0.97879,555.341,790.053,788.833,0.97879,0.161672
213.0,0.99322,555.506,795.396,794.174,0.99322,0.176102
216.0,1.00661,555.671,800.737,799.512,1.00661,0.189492
219.0,1.01296,555.836,806.074,804.846,1.01296,0.195842
222.0,1.0286,556.001,811.407,810.178,1.0286,0.211482
225.0,1.04495,556.166,816.738,815.506,1.04495,0.227832
228.0,1.05532,556.33,822.066,820.831,1.05532,0.238202
231.0,1.07198,556.495,827.39,826.153,1.07198,0.254862
234.0,1.08484,556.66,832.711,831.472,1.08484,0.267722
237.0,1.10436,556.825,838.029,836.787,1.10436,0.287242
240.0,1.12934,556.99,843.344,842.1,1.12934,0.312222
243.0,1.14605,557.155,848.656,847.409,1.14605,0.328932
246.0,1.15839,557.32,853.965,852.715,1.15839,0.341272
249.0,1.17401,557.484,859.27,858.018,1.16255,0.345432
252.0,1.16536,557.649,864.572,863.318,1.16536,0.348242
255.0,1.17273,557.814,869.872,868.615,1.17306,0.355942
258.0,1.17815,557.979,875.168,873.908,1.18137,0.364252
261.0,1.18666,558.144,880.461,879.199,1.185,0.367882
264.0,1.18664,558.309,885.751,884.486,1.18791,0.370792
267.0,1.19473,558.473,891.037,889.77,1.1936,0.376482
270.0,1.19555,558.638,896.321,895.051,1.19606,0.378942
273.0,1.20739,558.803,901.601,900.329,1.20348,0.386362
276.0,1.2086,558.968,906.879,905.604,1.20853,0.391412
279.0,1.21305,559.133,912.153,910.876,1.21305,0.395932
282.0,1.21948,559.298,917.424,916.145,1.2171,0.399982
285.0,1.21684,559.462,922.692,921.41,1.21684,0.399722
288.0,1.21343,559.627,927.957,926.673,1.21501,0.397892
291.0,1.21475,559.792,933.219,931.932,1.21475,0.397632
294.0,1.2158,559.957,938.478,937.188,1.2158,0.398682
297.0,1.21464,560.122,943.733,942.441,1.21629,0.399172
300.0,1.21278,560.287,948.986,947.691,1.21629,0.399172
303.0,1.20996,560.452,954.235,952.938,1.20996,0.392842
306.0,1.20919,560.616,959.482,958.182,1.20945,0.392332
309.0,1.20766,560.781,964.725,963.423,1.20945,0.392332
312.0,1.21006,560.946,969.965,968.661,1.21006,0.392942
315.0,1.20951,561.111,975.202,973.896,1.21083,0.393712
318.0,1.21173,561.276,980.436,979.127,1.21291,0.395792
321.0,1.21308,561.441,985.667,984.356,1.21308,0.395962
324.0,1.21632,561.605,990.895,989.581,1.21694,0.399822
327.0,1.21927,561.77,996.12,994.803,1.2191,0.401982
330.0,1.2242,561.935,1001.34,1000.02,1.22273,0.405612
333.0,1.22434,562.1,1006.56,1005.24,1.22434,0.407222
336.0,1.23179,562.265,1011.78,1010.45,1.23171,0.414592
339.0,1.23545,562.43,1016.99,1015.66,1.23477,0.417652
342.0,1.23021,562.594,1022.2,1020.87,1.2348,0.417682
345.0,1.23787,562.759,1027.4,1026.07,1.23787,0.420752
348.0,1.24487,562.924,1032.61,1031.27,1.24487,0.427752
351.0,1.25602,563.089,1037.81,1036.47,1.25513,0.438012
354.0,1.25802,563.254,1043.01,1041.67,1.25598,0.438862
357.0,1.25505,563.419,1048.2,1046.86,1.25332,0.436202
360.0,1.24923,563.583,1053.39,1052.05,1.24923,0.432112
363.0,1.2504,563.748,1058.58,1057.23,1.24838,0.431262
366.0,1.24678,563.913,1063.77,1062.42,1.24886,0.431742
369.0,1.25356,564.078,1068.95,1067.6,1.25031,0.433192
372.0,1.25195,564.243,1074.13,1072.77,1.2536,0.436482
375.0,1.251,564.408,1079.3,1077.95,1.25384,0.436722
378.0,1.263,564.573,1084.48,1083.12,1.25641,0.439292
381.0,1.2599,564.737,1089.65,1088.28,1.25641,0.439292
384.0,1.25731,564.902,1094.81,1093.45,1.25659,0.439472
387.0,1.25515,565.067,1099.98,1098.61,1.25515,0.438032
390.0,1.25552,565.232,1105.14,1103.77,1.25552,0.438402
393.0,1.25489,565.397,1110.3,1108.93,1.25676,0.439642
396.0,1.26411,565.562,1115.45,1114.08,1.26411,0.446992
399.0,1.27515,565.726,1120.6,1119.23,1.2749,0.457782
402.0,1.2752,565.891,1125.75,1124.37,1.2749,0.457782
405.0,1.28532,566.056,1130.9,1129.52,1.27286,0.455742
408.0,1.26966,566.221,1136.04,1134.66,1.26834,0.451222
411.0,1.25718,566.386,1141.18,1139.8,1.25718,0.440062
414.0,1.2521,566.551,1146.32,1144.93,1.25229,0.435172
417.0,1.25653,566.715,1151.45,1150.06,1.25424,0.437122
420.0,1.25698,566.88,1156.58,1155.19,1.25698,0.439862
423.0,1.26131,567.045,1161.71,1160.32,1.26044,0.443322
426.0,1.26475,567.21,1166.84,1165.44,1.26298,0.445862
429.0,1.25912,567.375,1171.96,1170.56,1.26019,0.443072
432.0,1.26168,567.54,1177.08,1175.68,1.26168,0.444562
435.0,1.25757,567.704,1182.19,1180.79,1.25757,0.440452
438.0,1.25343,567.869,1187.31,1185.9,1.2558,0.438682
441.0,1.2588,568.034,1192.42,1191.01,1.25803,0.440912
444.0,1.26019,568.199,1197.52,1196.11,1.25803,0.440912
447.0,1.26725,568.364,1202.63,1201.21,1.26117,0.444052
450.0,1.26408,568.529,1207.73,1206.31,1.26379,0.446672
453.0,1.27466,568.694,1212.83,1211.41,1.26379,0.446672
456.0,1.26621,568.858,1217.92,1216.5,1.26621,0.449092
459.0,1.27187,569.023,1223.02,1221.59,1.27011,0.452992
462.0,1.26932,569.188,1228.11,1226.68,1.26932,0.452202
465.0,1.27644,569.353,1233.19,1231.76,1.27644,0.459322
468.0,1.27779,569.518,1238.28,1236.85,1.27779,0.460672
471.0,1.27835,569.683,1243.36,1241.92,1.27835,0.461232
474.0,1.27796,569.847,1248.43,1247,1.27524,0.458122
477.0,1.27164,570.012,1253.51,1252.07,1.27418,0.457062
480.0,1.27229,570.177,1258.58,1257.14,1.27326,0.456142
483.0,1.27583,570.342,1263.65,1262.21,1.27447,0.457352
486.0,1.27696,570.507,1268.72,1267.27,1.27599,0.458872
489.0,1.27464,570.672,1273.78,1272.33,1.2727,0.455582
492.0,1.27205,570.836,1278.84,1277.39,1.27246,0.455342
495.0,1.2753,571.001,1283.9,1282.44,1.2753,0.458182
498.0,1.27178,571.166,1288.95,1287.5,1.27121,0.454092
501.0,1.27215,571.331,1294,1292.55,1.27215,0.455032
504.0,1.27151,571.496,1299.05,1297.59,1.27215,0.455032
507.0,1.27254,571.661,1304.1,1302.63,1.27254,0.455422
510.0,1.27032,571.825,1309.14,1307.67,1.27254,0.455422
513.0,1.27537,571.99,1314.18,1312.71,1.27617,0.459052
516.0,1.27697,572.155,1319.22,1317.75,1.2782,0.461082
519.0,1.28279,572.32,1324.25,1322.78,1.28279,0.465672
522.0,1.28361,572.485,1329.28,1327.81,1.28425,0.467132
525.0,1.28618,572.65,1334.31,1332.83,1.28507,0.467952
528.0,1.28672,572.815,1339.33,1337.86,1.287,0.469882
531.0,1.28696,572.979,1344.36,1342.88,1.28957,0.472452
534.0,1.29232,573.144,1349.38,1347.89,1.29283,0.475712
537.0,1.29552,573.309,1354.39,1352.91,1.29283,0.475712
540.0,1.29385,573.474,1359.41,1357.92,1.29205,0.474932
543.0,1.29368,573.639,1364.42,1362.93,1.29368,0.476562
546.0,1.29504,573.804,1369.43,1367.93,1.29515,0.478032
549.0,1.29531,573.968,1374.43,1372.94,1.29606,0.478942
552.0,1.29975,574.133,1379.43,1377.94,1.29606,0.478942
555.0,1.29083,574.298,1384.43,1382.93,1.2927,0.475582
558.0,1.28935,574.463,1389.43,1387.93,1.28954,0.472422
561.0,1.28716,574.628,1394.42,1392.92,1.28876,0.471642
564.0,1.28798,574.793,1399.41,1397.91,1.28876,0.471642
567.0,1.29085,574.957,1404.4,1402.89,1.29009,0.472972
570.0,1.29011,575.122,1409.39,1407.87,1.29065,0.473532
573.0,1.30533,575.287,1414.37,1412.85,1.29104,0.473922
576.0,1.29761,575.452,1419.35,1417.83,1.29362,0.476502
579.0,1.29906,575.617,1424.32,1422.81,1.29499,0.477872
582.0,1.29573,575.782,1429.3,1427.78,1.29573,0.478612
585.0,1.31181,575.946,1434.27,1432.74,1.29761,0.480492
588.0,1.29739,576.111,1439.24,1437.71,1.29621,0.479092
591.0,1.29306,576.276,1444.2,1442.67,1.29568,0.478562
594.0,1.29721,576.441,1449.16,1447.63,1.29843,0.481312
597.0,1.30423,576.606,1454.12,1452.59,1.30423,0.487112
600.0,1.31776,576.771,1459.08,1457.54,1.30892,0.491802
603.0,1.30892,576.936,1464.03,1462.5,1.30892,0.491802
606.0,1.31611,577.1,1468.98,1467.44,1.30837,0.491252
609.0,1.30126,577.265,1473.93,1472.39,1.30126,0.484142
612.0,1.29692,577.43,1478.88,1477.33,1.29692,0.479802
615.0,1.29436,577.595,1483.82,1482.27,1.29202,0.474902
618.0,1.29365,577.76,1488.76,1487.21,1.29141,0.474292
621.0,1.29235,577.925,1493.7,1492.14,1.29255,0.475432
624.0,1.29329,578.089,1498.63,1497.08,1.29283,0.475712
627.0,1.28926,578.254,1503.56,1502.01,1.29044,0.473322
630.0,1.31966,578.419,1508.49,1506.93,1.29391,0.476792
633.0,1.2899,578.584,1513.41,1511.85,1.29146,0.474342
636.0,1.2921,578.749,1518.34,1516.77,1.29183,0.474712
639.0,1.29041,578.914,1523.26,1521.69,1.29271,0.475592
642.0,1.29234,579.078,1528.17,1526.61,1.29277,0.475652
645.0,1.29265,579.243,1533.09,1531.52,1.29277,0.475652
648.0,1.292,579.408,1538,1536.43,1.292,0.474882
651.0,1.29239,579.573,1542.91,1541.33,1.29239,0.475272
654.0,1.2939,579.738,1547.82,1546.24,1.29563,0.478512
657.0,1.29627,579.903,1552.72,1551.14,1.29627,0.479152
660.0,1.29497,580.067,1557.62,1556.04,1.29485,0.477732
663.0,1.29636,580.232,1562.52,1560.93,1.29471,0.477592
666.0,1.30457,580.397,1567.41,1565.83,1.29471,0.477592
669.0,1.29705,580.562,1572.3,1570.72,1.29553,0.478412
672.0,1.36854,580.727,1577.19,1575.6,1.29553,0.478412
675.0,1.29478,580.892,1582.08,1580.49,1.2939,0.476782
678.0,1.29263,581.057,1586.96,1585.37,1.29281,0.475692
681.0,1.29358,581.221,1591.84,1590.25,1.29428,0.477162
684.0,1.29271,581.386,1596.72,1595.12,1.29271,0.475592
687.0,1.2947,581.551,1601.6,1600,1.29247,0.475352
690.0,1.29193,581.716,1606.47,1604.87,1.29325,0.476132
693.0,1.29284,581.881,1611.34,1609.73,1.29317,0.476052
696.0,1.29311,582.046,1616.21,1614.6,1.29317,0.476052
699.0,1.29218,582.21,1621.07,1619.46,1.29886,0.481742
702.0,1.30155,582.375,1625.93,1624.32,1.29502,0.477902
705.0,1.29337,582.54,1630.79,1629.18,1.29387,0.476752
708.0,1.29554,582.705,1635.65,1634.03,1.29387,0.476752
711.0,1.29552,582.87,1640.5,1638.88,1.29358,0.476462
714.0,1.2917,583.035,1645.35,1643.73,1.29409,0.476972
717.0,1.29123,583.199,1650.2,1648.57,1.29409,0.476972
720.0,1.29587,583.364,1655.04,1653.42,1.2938,0.476682
723.0,1.29224,583.529,1659.89,1658.26,1.2938,0.476682
726.0,1.29498,583.694,1664.73,1663.1,1.29498,0.477862
729.0,1.29558,583.859,1669.56,1667.93,1.29508,0.477962
732.0,1.29517,584.024,1674.4,1672.76,1.29346,0.476342
735.0,1.29663,584.188,1679.23,1677.59,1.29663,0.479512
738.0,1.29646,584.353,1684.06,1682.42,1.29646,0.479342
741.0,1.29403,584.518,1688.88,1687.24,1.29495,0.477832
744.0,1.29598,584.683,1693.71,1692.06,1.29598,0.478862
747.0,1.29799,584.848,1698.53,1696.88,1.29799,0.480872
750.0,1.29498,585.013,1703.35,1701.7,1.29534,0.478222
753.0,1.29848,585.178,1708.16,1706.51,1.29818,0.481062
756.0,1.29631,585.342,1712.97,1711.32,1.29631,0.479192
759.0,1.29479,585.507,1717.78,1716.13,1.29562,0.478502
762.0,1.29811,585.672,1722.59,1720.93,1.29575,0.478632
765.0,1.29473,585.837,1727.39,1725.73,1.29575,0.478632
768.0,1.29672,586.002,1732.2,1730.53,1.29795,0.480832
771.0,1.29787,586.167,1737,1735.33,1.29787,0.480752
774.0,1.30046,586.331,1741.79,1740.12,1.29787,0.480752
777.0,1.29812,586.496,1746.58,1744.91,1.29812,0.481002
780.0,1.29493,586.661,1751.38,1749.7,1.29691,0.479792
783.0,1.35103,586.826,1756.16,1754.49,1.29788,0.480762
786.0,1.30069,586.991,1760.95,1759.27,1.29581,0.478692
789.0,1.30083,587.156,1765.73,1764.05,1.29634,0.479222
792.0,1.29797,587.32,1770.51,1768.83,1.29634,0.479222
795.0,1.29935,587.485,1775.29,1773.61,1.29574,0.478622
798.0,1.30817,587.65,1780.06,1778.38,1.29729,0.480172
801.0,1.29689,587.815,1784.84,1783.15,1.29689,0.479772
804.0,1.29453,587.98,1789.61,1787.91,1.29579,0.478672
807.0,1.29466,588.145,1794.37,1792.68,1.29466,0.477542
810.0,1.2972,588.309,1799.14,1797.44,1.2972,0.480082
813.0,1.29607,588.474,1803.9,1802.2,1.29763,0.480512
816.0,1.29657,588.639,1808.66,1806.96,1.29657,0.479452
819.0,1.29623,588.804,1813.41,1811.71,1.29623,0.479112
822.0,1.29452,588.969,1818.17,1816.46,1.29654,0.479422
825.0,1.29816,589.134,1822.92,1821.21,1.29772,0.480602
828.0,1.29977,589.299,1827.66,1825.96,1.29772,0.480602
831.0,1.29768,589.463,1832.41,1830.7,1.29653,0.479412
834.0,1.29558,589.628,1837.15,1835.44,1.29653,0.479412
837.0,1.29321,589.793,1841.89,1840.18,1.29621,0.479092
840.0,1.29575,589.958,1846.63,1844.91,1.29621,0.479092
843.0,1.30048,590.123,1851.36,1849.65,1.29779,0.480672
846.0,1.30282,590.288,1856.1,1854.37,1.3042,0.487082
849.0,1.29396,590.452,1860.83,1859.1,1.29944,0.482322
852.0,1.29791,590.617,1865.55,1863.83,1.29862,0.481502
855.0,1.29851,590.782,1870.28,1868.55,1.29862,0.481502
858.0,1.29952,590.947,1875,1873.27,1.29891,0.481792
861.0,1.29771,591.112,1879.72,1877.98,1.29891,0.481792
864.0,1.29745,591.277,1884.43,1882.7,1.29933,0.482212
867.0,1.31037,591.441,1889.15,1887.41,1.29933,0.482212
870.0,1.29967,591.606,1893.86,1892.12,1.29795,0.480832
873.0,1.29988,591.771,1898.57,1896.83,1.2959,0.478782
876.0,1.29858,591.936,1903.27,1901.53,1.29752,0.480402
879.0,1.29776,592.101,1907.98,1906.23,1.2977,0.480582
882.0,1.29602,592.266,1912.68,1910.93,1.29726,0.480142
885.0,1.29382,592.43,1917.38,1915.62,1.29635,0.479232
888.0,1.29857,592.595,1922.07,1920.32,1.2984,0.481282
891.0,1.29569,592.76,1926.76,1925.01,1.29466,0.477542
894.0,1.29413,592.925,1931.45,1929.7,1.29466,0.477542
897.0,1.29634,593.09,1936.14,1934.38,1.29557,0.478452
900.0,1.29506,593.255,1940.83,1939.06,1.29317,0.476052
903.0,1.29329,593.42,1945.51,1943.74,1.29329,0.476172
906.0,1.29664,593.584,1950.19,1948.42,1.29664,0.479522
909.0,1.29319,593.749,1954.86,1953.1,1.29319,0.476072
912.0,1.29332,593.914,1959.54,1957.77,1.29332,0.476202
915.0,1.29266,594.079,1964.21,1962.44,1.29182,0.474702
918.0,1.29189,594.244,1968.88,1967.11,1.29162,0.474502
921.0,1.29172,594.409,1973.55,1971.77,1.29172,0.474602
924.0,1.29099,594.573,1978.21,1976.43,1.29197,0.474852
927.0,1.29233,594.738,1982.87,1981.09,1.29223,0.475112
930.0,1.28697,594.903,1987.53,1985.75,1.2902,0.473082
933.0,1.2936,595.068,1992.19,1990.4,1.2936,0.476482
936.0,1.28628,595.233,1996.84,1995.05,1.2892,0.472082
939.0,1.28847,595.398,2001.49,1999.7,1.28847,0.471352
942.0,1.28564,595.562,2006.14,2004.35,1.28603,0.468912
945.0,1.28618,595.727,2010.79,2008.99,1.28575,0.468632
948.0,1.28679,595.892,2015.43,2013.63,1.28575,0.468632
951.0,1.28766,596.057,2020.07,2018.27,1.28907,0.471952
954.0,1.28453,596.222,2024.71,2022.91,1.28626,0.469142
957.0,1.28262,596.387,2029.35,2027.54,1.28262,0.465502
960.0,1.28156,596.551,2033.98,2032.17,1.28156,0.464442
963.0,1.28219,596.716,2038.61,2036.8,1.28549,0.468372
966.0,1.28035,596.881,2043.24,2041.43,1.28117,0.464052
969.0,1.28558,597.046,2047.86,2046.05,1.28147,0.464352
972.0,1.28167,597.211,2052.49,2050.67,1.28197,0.464852
975.0,1.28616,597.376,2057.11,2055.29,1.28197,0.464852
978.0,1.27862,597.541,2061.73,2059.91,1.27862,0.461502
981.0,1.27797,597.705,2066.34,2064.52,1.27914,0.462022
984.0,1.27808,597.87,2070.95,2069.13,1.27914,0.462022
987.0,1.27986,598.035,2075.56,2073.74,1.27986,0.462742
990.0,1.27561,598.2,2080.17,2078.34,1.27584,0.458722
993.0,1.27575,598.365,2084.78,2082.95,1.27575,0.458632
996.0,1.27936,598.53,2089.38,2087.55,1.27291,0.455792
999.0,1.27858,598.694,2093.98,2092.15,1.27298,0.455862
1002.0,1.27356,598.859,2098.58,2096.74,1.27356,0.456442
1005.0,1.27239,599.024,2103.17,2101.33,1.27239,0.455272
1008.0,1.27515,599.189,2107.77,2105.93,1.27219,0.455072
1011.0,1.27185,599.354,2112.36,2110.51,1.27185,0.454732
1014.0,1.26857,599.519,2116.94,2115.1,1.26857,0.451452
1017.0,1.268,599.683,2121.53,2119.68,1.26856,0.451442
1020.0,1.26888,599.848,2126.11,2124.26,1.2705,0.453382
1023.0,1.26746,600.013,2130.69,2128.84,1.26909,0.451972
1026.0,1.26682,600.178,2135.27,2133.41,1.26848,0.451362
1029.0,1.26947,600.343,2139.84,2137.99,1.26848,0.451362
1032.0,1.26689,600.508,2144.42,2142.56,1.26668,0.449562
1035.0,1.26339,600.672,2148.99,2147.13,1.26668,0.449562
1038.0,1.26533,600.837,2153.55,2151.69,1.26623,0.449112
1041.0,1.26704,601.002,2158.12,2156.25,1.26623,0.449112
1044.0,1.27311,601.167,2162.68,2160.81,1.26401,0.446892
1047.0,1.26014,601.332,2167.24,2165.37,1.26141,0.444292
1050.0,1.26121,601.497,2171.8,2169.93,1.26135,0.444232
1053.0,1.2619,601.662,2176.35,2174.48,1.26191,0.444792
1056.0,1.25992,601.826,2180.9,2179.03,1.26011,0.442992
1059.0,1.26128,601.991,2185.45,2183.58,1.26011,0.442992
1062.0,1.26049,602.156,2190,2188.12,1.26041,0.443292
1065.0,1.25671,602.321,2194.55,2192.67,1.25756,0.440442
1068.0,1.25932,602.486,2199.09,2197.21,1.25932,0.442202
1071.0,1.25893,602.651,2203.63,2201.74,1.25893,0.441812
1074.0,1.26045,602.815,2208.17,2206.28,1.25881,0.441692
1077.0,1.25654,602.98,2212.7,2210.81,1.25654,0.439422
1080.0,1.25824,603.145,2217.23,2215.34,1.25824,0.441122
1083.0,1.2627,603.31,2221.76,2219.87,1.2627,0.445582
1086.0,1.25529,603.475,2226.29,2224.4,1.2605,0.443382
1089.0,1.25646,603.64,2230.82,2228.92,1.25646,0.439342
1092.0,1.25676,603.804,2235.34,2233.44,1.2551,0.437982
1095.0,1.26235,603.969,2239.86,2237.96,1.2551,0.437982
1098.0,1.25876,604.134,2244.38,2242.47,1.25379,0.436672
1101.0,1.25799,604.299,2248.89,2246.99,1.25409,0.436972
1104.0,1.25341,604.464,2253.41,2251.5,1.25409,0.436972
1107.0,1.25367,604.629,2257.92,2256,1.25367,0.436552
1110.0,1.25012,604.794,2262.42,2260.51,1.2542,0.437082
1113.0,1.25345,604.958,2266.93,2265.01,1.25345,0.436332
1116.0,1.25098,605.123,2271.43,2269.51,1.2521,0.434982
1119.0,1.25359,605.288,2275.93,2274.01,1.25359,0.436472
1122.0,1.25345,605.453,2280.43,2278.51,1.24936,0.432242
1125.0,1.24822,605.618,2284.93,2283,1.24822,0.431102
1128.0,1.25035,605.783,2289.42,2287.49,1.2488,0.431682
1131.0,1.24707,605.947,2293.91,2291.98,1.24663,0.429512
1134.0,1.24933,606.112,2298.4,2296.47,1.24663,0.429512
1137.0,1.24942,606.277,2302.88,2300.95,1.24843,0.431312
1140.0,1.246,606.442,2307.37,2305.43,1.24764,0.430522
1143.0,1.24542,606.607,2311.85,2309.91,1.24774,0.430622
1146.0,1.24603,606.772,2316.33,2314.39,1.24671,0.429592
1149.0,1.24482,606.936,2320.8,2318.86,1.24482,0.427702
1152.0,1.24467,607.101,2325.28,2323.33,1.24381,0.426692
1155.0,1.2498,607.266,2329.75,2327.8,1.24265,0.425532
1158.0,1.24428,607.431,2334.22,2332.27,1.24454,0.427422
1161.0,1.24254,607.596,2338.68,2336.73,1.24427,0.427152
1164.0,1.24366,607.761,2343.15,2341.19,1.2422,0.425082
1167.0,1.24651,607.925,2347.61,2345.65,1.24113,0.424012
1170.0,1.23859,608.09,2352.07,2350.11,1.239,0.421882
1173.0,1.24164,608.255,2356.52,2354.57,1.24183,0.424712
1176.0,1.23892,608.42,2360.98,2359.02,1.23938,0.422262
1179.0,1.23819,608.585,2365.43,2363.47,1.23897,0.421852
1182.0,1.23567,608.75,2369.88,2367.91,1.23827,0.421152
1185.0,1.23513,608.915,2374.33,2372.36,1.24056,0.423442
1188.0,1.23803,609.079,2378.77,2376.8,1.23803,0.420912
1191.0,1.23713,609.244,2383.21,2381.24,1.23713,0.420012
1194.0,1.23662,609.409,2387.65,2385.68,1.23717,0.420052
1197.0,1.2354,609.574,2392.09,2390.12,1.23844,0.421322
1200.0,1.23749,609.739,2396.52,2394.55,1.23749,0.420372
1203.0,1.23489,609.904,2400.96,2398.98,1.23236,0.415242
1206.0,1.23325,610.068,2405.39,2403.41,1.23289,0.415772
1209.0,1.23311,610.233,2409.82,2407.83,1.23196,0.414842
1212.0,1.232,610.398,2414.24,2412.26,1.23196,0.414842
1215.0,1.23113,610.563,2418.66,2416.68,1.23113,0.414012
1218.0,1.22635,610.728,2423.08,2421.1,1.22795,0.410832
1221.0,1.2314,610.893,2427.5,2425.51,1.23049,0.413372
1224.0,1.22872,611.057,2431.92,2429.93,1.22773,0.410612
1227.0,1.22874,611.222,2436.33,2434.34,1.22739,0.410272
1230.0,1.2273,611.387,2440.74,2438.75,1.2273,0.410182
1233.0,1.22658,611.552,2445.15,2443.15,1.22598,0.408862
1236.0,1.22338,611.717,2449.56,2447.56,1.22458,0.407462
1239.0,1.22337,611.882,2453.96,2451.96,1.22352,0.406402
1242.0,1.22535,612.046,2458.36,2456.36,1.22278,0.405662
1245.0,1.22493,612.211,2462.76,2460.75,1.22278,0.405662
1248.0,1.2233,612.376,2467.16,2465.15,1.2233,0.406182
1251.0,1.22097,612.541,2471.55,2469.54,1.22125,0.404132
1254.0,1.22126,612.706,2475.95,2473.93,1.22125,0.404132
1257.0,1.22072,612.871,2480.34,2478.32,1.22109,0.403972
1260.0,1.22092,613.036,2484.72,2482.71,1.22092,0.403802
1263.0,1.21596,613.2,2489.11,2487.09,1.2169,0.399782
1266.0,1.21914,613.365,2493.49,2491.47,1.21914,0.402022
1269.0,1.21703,613.53,2497.87,2495.85,1.21708,0.399962
1272.0,1.21508,613.695,2502.25,2500.22,1.21508,0.397962
1275.0,1.21888,613.86,2506.63,2504.6,1.21443,0.397312
1278.0,1.20958,614.025,2511,2508.97,1.2112,0.394082
1281.0,1.20997,614.189,2515.37,2513.34,1.2101,0.392982
1284.0,1.2115,614.354,2519.74,2517.7,1.2104,0.393282
1287.0,1.22654,614.519,2524.1,2522.07,1.21025,0.393132
1290.0,1.20951,614.684,2528.47,2526.43,1.20765,0.390532
1293.0,1.20877,614.849,2532.83,2530.79,1.20765,0.390532
1296.0,1.20942,615.014,2537.19,2535.15,1.20749,0.390372
1299.0,1.20714,615.178,2541.55,2539.5,1.20462,0.387502
1302.0,1.20661,615.343,2545.9,2543.85,1.20345,0.386332
1305.0,1.20497,615.508,2550.25,2548.2,1.20382,0.386702
1308.0,1.19941,615.673,2554.6,2552.55,1.20277,0.385652
1311.0,1.20071,615.838,2558.95,2556.9,1.20236,0.385242
1314.0,1.20077,616.003,2563.3,2561.24,1.20077,0.383652
1317.0,1.19874,616.167,2567.64,2565.58,1.19881,0.381692
1320.0,1.20301,616.332,2571.98,2569.92,1.19853,0.381412
1323.0,1.20882,616.497,2576.32,2574.26,1.19775,0.380632
1326.0,1.19703,616.662,2580.65,2578.59,1.19627,0.379152
1329.0,1.1953,616.827,2584.99,2582.92,1.19491,0.377792
1332.0,1.19287,616.992,2589.32,2587.25,1.19287,0.375752
1335.0,1.19791,617.157,2593.65,2591.58,1.1908,0.373682
1338.0,1.19321,617.321,2597.97,2595.9,1.19321,0.376092
1341.0,1.19094,617.486,2602.3,2600.22,1.19177,0.374652
1344.0,1.18992,617.651,2606.62,2604.54,1.1902,0.373082
1347.0,1.19031,617.816,2610.94,2608.86,1.19031,0.373192
1350.0,1.19536,617.981,2615.26,2613.18,1.19101,0.373892
1353.0,1.18796,618.146,2619.57,2617.49,1.18821,0.371092
1356.0,1.18659,618.31,2623.89,2621.8,1.18724,0.370122
1359.0,1.18503,618.475,2628.2,2626.11,1.18604,0.368922
1362.0,1.18484,618.64,2632.5,2630.42,1.18529,0.368172
1365.0,1.182,618.805,2636.81,2634.72,1.18305,0.365932
1368.0,1.18315,618.97,2641.11,2639.02,1.1831,0.365982
1371.0,1.17997,619.135,2645.42,2643.32,1.1811,0.363982
1374.0,1.17957,619.299,2649.71,2647.62,1.1811,0.363982
1377.0,1.18236,619.464,2654.01,2651.91,1.18236,0.365242
1380.0,1.18296,619.629,2658.31,2656.21,1.18296,0.365842
1383.0,1.17794,619.794,2662.6,2660.5,1.17693,0.359812
1386.0,1.17838,619.959,2666.89,2664.78,1.17838,0.361262
1389.0,1.17937,620.124,2671.18,2669.07,1.17941,0.362292
1392.0,1.18748,620.288,2675.46,2673.35,1.17631,0.359192
1395.0,1.17815,620.453,2679.74,2677.63,1.17698,0.359862
1398.0,1.1735,620.618,2684.03,2681.91,1.17593,0.358812
1401.0,1.17558,620.783,2688.3,2686.19,1.17558,0.358462
1404.0,1.17138,620.948,2692.58,2690.46,1.17356,0.356442
1407.0,1.16902,621.113,2696.85,2694.74,1.17219,0.355072
1410.0,1.17229,621.278,2701.13,2699.01,1.17255,0.355432
1413.0,1.17174,621.442,2705.4,2703.27,1.17255,0.355432
1416.0,1.17187,621.607,2709.66,2707.54,1.17195,0.354832
1419.0,1.17307,621.772,2713.93,2711.8,1.17222,0.355102
1422.0,1.177,621.937,2718.19,2716.06,1.17143,0.354312
1425.0,1.17036,622.102,2722.45,2720.32,1.17036,0.353242
1428.0,1.1798,622.267,2726.71,2724.58,1.17179,0.354672
1431.0,1.16845,622.431,2730.96,2728.83,1.16931,0.352192
1434.0,1.17062,622.596,2735.22,2733.08,1.16931,0.352192
1437.0,1.16865,622.761,2739.47,2737.33,1.16728,0.350162
1440.0,1.16598,622.926,2743.72,2741.58,1.16598,0.348862
1443.0,1.16512,623.091,2747.97,2745.82,1.16512,0.348002
1446.0,1.16554,623.256,2752.21,2750.07,1.16473,0.347612
1449.0,1.16173,623.42,2756.45,2754.31,1.16311,0.345992
1452.0,1.15917,623.585,2760.69,2758.55,1.16112,0.344002
1455.0,1.16113,623.75,2764.93,2762.78,1.16113,0.344012
1458.0,1.15625,623.915,2769.17,2767.01,1.15918,0.342062
1461.0,1.17386,624.08,2773.4,2771.25,1.15895,0.341832
1464.0,1.15618,624.245,2777.63,2775.48,1.15777,0.340652
1467.0,1.15599,624.409,2781.86,2779.7,1.15613,0.339012
1470.0,1.15449,624.574,2786.09,2783.93,1.15639,0.339272
1473.0,1.15487,624.739,2790.31,2788.15,1.15702,0.339902
1476.0,1.15508,624.904,2794.53,2792.37,1.15508,0.337962
1479.0,1.15678,625.069,2798.75,2796.59,1.15552,0.338402
1482.0,1.15329,625.234,2802.97,2800.8,1.15399,0.336872
1485.0,1.153,625.399,2807.19,2805.02,1.15399,0.336872
1488.0,1.15102,625.563,2811.4,2809.23,1.1548,0.337682
1491.0,1.15455,625.728,2815.61,2813.44,1.15455,0.337432
1494.0,1.15188,625.893,2819.82,2817.65,1.15294,0.335822
1497.0,1.15,626.058,2824.03,2821.85,1.15282,0.335702
1500.0,1.14972,626.223,2828.23,2826.05,1.15004,0.332922
1503.0,1.15003,626.388,2832.44,2830.25,1.14963,0.332512
1506.0,1.15099,626.552,2836.64,2834.45,1.15099,0.333872
1509.0,1.14696,626.717,2840.83,2838.65,1.14947,0.332352
1512.0,1.14893,626.882,2845.03,2842.84,1.14947,0.332352
1515.0,1.16285,627.047,2849.22,2847.03,1.15013,0.333012
1518.0,1.14756,627.212,2853.41,2851.22,1.14834,0.331222
1521.0,1.1481,627.377,2857.6,2855.41,1.14913,0.332012
1524.0,1.15078,627.541,2861.79,2859.59,1.15027,0.333152
1527.0,1.15019,627.706,2865.97,2863.78,1.15019,0.333072
1530.0,1.1519,627.871,2870.16,2867.96,1.1519,0.334782
1533.0,1.15542,628.036,2874.34,2872.14,1.15434,0.337222
1536.0,1.15706,628.201,2878.52,2876.31,1.15787,0.340752
1539.0,1.16509,628.366,2882.69,2880.49,1.16509,0.347972
1542.0,1.17368,628.53,2886.87,2884.66,1.17435,0.357232
1545.0,1.19068,628.695,2891.04,2888.83,1.18692,0.369802
1548.0,1.19181,628.86,2895.21,2892.99,1.19019,0.373072
1551.0,1.19513,629.025,2899.37,2897.16,1.19513,0.378012
1554.0,1.20108,629.19,2903.54,2901.32,1.20108,0.383962
1557.0,1.21243,629.355,2907.7,2905.48,1.21243,0.395312
1560.0,1.21564,629.52,2911.86,2909.64,1.21564,0.398522
1563.0,1.2132,629.684,2916.02,2913.8,1.21361,0.396492
1566.0,1.20725,629.849,2920.18,2917.95,1.2068,0.389682
1569.0,1.19445,630.014,2924.33,2922.1,1.19765,0.380532
1572.0,1.19263,630.179,2928.48,2926.25,1.19713,0.380012
1575.0,1.19678,630.344,2932.63,2930.4,1.1976,0.380482
1578.0,1.2007,630.509,2936.78,2934.55,1.2007,0.383582
1581.0,1.20657,630.673,2940.93,2938.69,1.20536,0.388242
1584.0,1.2004,630.838,2945.07,2942.83,1.2004,0.383282
1587.0,1.18911,631.003,2949.21,2946.97,1.18911,0.371992
1590.0,1.17391,631.168,2953.35,2951.11,1.17391,0.356792
1593.0,1.16303,631.333,2957.49,2955.24,1.16303,0.345912
1596.0,1.17003,631.498,2961.62,2959.38,1.16046,0.343342
1599.0,1.15332,631.662,2965.75,2963.51,1.15403,0.336912
1602.0,1.15322,631.827,2969.88,2967.64,1.15322,0.336102
1605.0,1.15285,631.992,2974.01,2971.76,1.15171,0.334592
1608.0,1.15013,632.157,2978.14,2975.89,1.15096,0.333842
1611.0,1.14937,632.322,2982.26,2980.01,1.1523,0.335182
1614.0,1.15566,632.487,2986.38,2984.13,1.15566,0.338542
1617.0,1.15694,632.651,2990.5,2988.24,1.15722,0.340102
1620.0,1.15354,632.816,2994.62,2992.36,1.15354,0.336422
1623.0,1.14494,632.981,2998.73,2996.47,1.14744,0.330322
1626.0,1.13776,633.146,3002.85,3000.58,1.13776,0.320642
1629.0,1.12888,633.311,3006.96,3004.69,1.12998,0.312862
1632.0,1.12718,633.476,3011.07,3008.8,1.12718,0.310062
1635.0,1.12192,633.641,3015.17,3012.91,1.12286,0.305742
1638.0,1.11822,633.805,3019.28,3017.01,1.11822,0.301102
1641.0,1.1136,633.97,3023.38,3021.11,1.1136,0.296482
1644.0,1.10722,634.135,3027.48,3025.21,1.10722,0.290102
1647.0,1.10304,634.3,3031.58,3029.3,1.10403,0.286912
1650.0,1.10003,634.465,3035.68,3033.4,1.10113,0.284012
1653.0,1.0999,634.63,3039.77,3037.49,1.09907,0.281952
1656.0,1.09751,634.794,3043.86,3041.58,1.09694,0.279822
1659.0,1.09291,634.959,3047.95,3045.67,1.09615,0.279032
1662.0,1.09523,635.124,3052.04,3049.75,1.09332,0.276202
1665.0,1.09381,635.289,3056.12,3053.84,1.09332,0.276202
1668.0,1.09034,635.454,3060.21,3057.92,1.09113,0.274012
1671.0,1.08943,635.619,3064.29,3062,1.09113,0.274012
1674.0,1.0955,635.783,3068.37,3066.07,1.08884,0.271722
1677.0,1.0839,635.948,3072.44,3070.15,1.08567,0.268552
1680.0,1.08603,636.113,3076.52,3074.22,1.08603,0.268912
1683.0,1.08543,636.278,3080.59,3078.29,1.08416,0.267042
1686.0,1.08316,636.443,3084.66,3082.36,1.08316,0.266042
1689.0,1.08369,636.608,3088.73,3086.43,1.08369,0.266572
1692.0,1.08185,636.772,3092.8,3090.49,1.08185,0.264732
1695.0,1.08064,636.937,3096.86,3094.55,1.08064,0.263522
1698.0,1.08282,637.102,3100.92,3098.61,1.08261,0.265492
1701.0,1.07735,637.267,3104.98,3102.67,1.07913,0.262012
1704.0,1.07588,637.432,3109.04,3106.73,1.07733,0.260212
1707.0,1.07765,637.597,3113.1,3110.78,1.07733,0.260212
1710.0,1.07721,637.762,3117.15,3114.83,1.07721,0.260092
1713.0,1.07271,637.926,3121.2,3118.88,1.07563,0.258512
1716.0,1.07207,638.091,3125.25,3122.93,1.07381,0.256692
1719.0,1.07503,638.256,3129.3,3126.98,1.07381,0.256692
1722.0,1.07533,638.421,3133.34,3131.02,1.07316,0.256042
1725.0,1.07351,638.586,3137.39,3135.06,1.07023,0.253112
1728.0,1.07079,638.751,3141.43,3139.1,1.06953,0.252412
1731.0,1.06754,638.915,3145.47,3143.14,1.07079,0.253672
1734.0,1.06766,639.08,3149.51,3147.17,1.07051,0.253392
1737.0,1.07012,639.245,3153.54,3151.21,1.07012,0.253002
1740.0,1.06888,639.41,3157.57,3155.24,1.06817,0.251052
1743.0,1.06423,639.575,3161.6,3159.27,1.0647,0.247582
1746.0,1.06488,639.74,3165.63,3163.29,1.06591,0.248792
1749.0,1.06901,639.904,3169.66,3167.32,1.06632,0.249202
1752.0,1.06545,640.069,3173.68,3171.34,1.06503,0.247912
1755.0,1.0627,640.234,3177.71,3175.36,1.06312,0.246002
1758.0,1.06269,640.399,3181.73,3179.38,1.06323,0.246112
1761.0,1.06023,640.564,3185.75,3183.4,1.06093,0.243812
1764.0,1.06053,640.729,3189.76,3187.41,1.06093,0.243812
1767.0,1.06088,640.893,3193.78,3191.42,1.06198,0.244862
1770.0,1.0594,641.058,3197.79,3195.43,1.06104,0.243922
1773.0,1.05997,641.223,3201.8,3199.44,1.05997,0.242852
1776.0,1.05835,641.388,3205.81,3203.45,1.05886,0.241742
1779.0,1.05767,641.553,3209.81,3207.45,1.05813,0.241012
1782.0,1.05804,641.718,3213.82,3211.45,1.05853,0.241412
1785.0,1.05776,641.883,3217.82,3215.45,1.05787,0.240752
1788.0,1.05946,642.047,3221.82,3219.45,1.05787,0.240752
1791.0,1.05729,642.212,3225.82,3223.45,1.05746,0.240342
1794.0,1.05622,642.377,3229.81,3227.44,1.05741,0.240292
1797.0,1.05486,642.542,3233.81,3231.43,1.05495,0.237832
1800.0,1.05576,642.707,3237.8,3235.42,1.05576,0.238642
1803.0,1.05699,642.872,3241.79,3239.41,1.05699,0.239872
1806.0,1.05843,643.036,3245.77,3243.4,1.05564,0.238522
1809.0,1.06473,643.201,3249.76,3247.38,1.05526,0.238142
1812.0,1.05255,643.366,3253.74,3251.36,1.05255,0.235432
1815.0,1.05311,643.531,3257.72,3255.34,1.05508,0.237962
1818.0,1.04893,643.696,3261.7,3259.32,1.05208,0.234962
1821.0,1.04866,643.861,3265.68,3263.29,1.05023,0.233112
1824.0,1.04884,644.025,3269.66,3267.27,1.04884,0.231722
1827.0,1.04666,644.19,3273.63,3271.24,1.04859,0.231472
1830.0,1.0505,644.355,3277.6,3275.21,1.04816,0.231042
1833.0,1.04766,644.52,3281.57,3279.18,1.04572,0.228602
1836.0,1.04608,644.685,3285.54,3283.14,1.04517,0.228052
1839.0,1.04592,644.85,3289.5,3287.1,1.04489,0.227772
1842.0,1.04124,645.015,3293.47,3291.07,1.0437,0.226582
1845.0,1.04185,645.179,3297.43,3295.02,1.04455,0.227432
1848.0,1.04494,645.344,3301.39,3298.98,1.04494,0.227822
1851.0,1.04172,645.509,3305.34,3302.94,1.04205,0.224932
1854.0,1.04656,645.674,3309.3,3306.89,1.04241,0.225292
1857.0,1.03911,645.839,3313.25,3310.84,1.04133,0.224212
1860.0,1.04212,646.004,3317.2,3314.79,1.04213,0.225012
1863.0,1.0412,646.168,3321.15,3318.74,1.04221,0.225092
1866.0,1.04043,646.333,3325.1,3322.68,1.04081,0.223692
1869.0,1.04019,646.498,3329.04,3326.63,1.04081,0.223692
1872.0,1.04166,646.663,3332.98,3330.57,1.04166,0.224542
1875.0,1.04106,646.828,3336.93,3334.51,1.03956,0.222442
1878.0,1.04128,646.993,3340.86,3338.44,1.04028,0.223162
1881.0,1.03788,647.157,3344.8,3342.38,1.03934,0.222222
1884.0,1.03573,647.322,3348.74,3346.31,1.03767,0.220552
1887.0,1.03986,647.487,3352.67,3350.24,1.03767,0.220552
1890.0,1.03674,647.652,3356.6,3354.17,1.03674,0.219622
1893.0,1.03331,647.817,3360.53,3358.1,1.03423,0.217112
1896.0,1.03782,647.982,3364.46,3362.02,1.03426,0.217142
1899.0,1.03164,648.146,3368.38,3365.95,1.03293,0.215812
1902.0,1.02999,648.311,3372.3,3369.87,1.03165,0.214532
1905.0,1.03347,648.476,3376.22,3373.79,1.0325,0.215382
1908.0,1.03127,648.641,3380.14,3377.7,1.0325,0.215382
1911.0,1.03306,648.806,3384.06,3381.62,1.03296,0.215842
1914.0,1.02866,648.971,3387.98,3385.53,1.03178,0.214662
1917.0,1.03125,649.136,3391.89,3389.44,1.03217,0.215052
1920.0,1.03096,649.3,3395.8,3393.35,1.03217,0.215052
1923.0,1.02629,649.465,3399.71,3397.26,1.02797,0.210852
1926.0,1.02468,649.63,3403.62,3401.16,1.02548,0.208362
1929.0,1.02819,649.795,3407.52,3405.07,1.02548,0.208362
1932.0,1.03078,649.96,3411.42,3408.97,1.02526,0.208142
1935.0,1.02522,650.125,3415.32,3412.87,1.02479,0.207672
1938.0,1.0271,650.289,3419.22,3416.76,1.02337,0.206252
1941.0,1.02432,650.454,3423.12,3420.66,1.02301,0.205892
1944.0,1.02763,650.619,3427.02,3424.55,1.0214,0.204282
1947.0,1.01981,650.784,3430.91,3428.44,1.02001,0.202892
1950.0,1.01707,650.949,3434.8,3432.33,1.01919,0.202072
1953.0,1.01918,651.114,3438.69,3436.22,1.01911,0.201992
1956.0,1.01484,651.278,3442.58,3440.11,1.01658,0.199462
1959.0,1.01218,651.443,3446.46,3443.99,1.01382,0.196702
1962.0,1.01093,651.608,3450.34,3447.87,1.01234,0.195222
1965.0,1.01146,651.773,3454.23,3451.75,1.01149,0.194372
1968.0,1.01734,651.938,3458.11,3455.63,1.01149,0.194372
1971.0,1.0086,652.103,3461.98,3459.5,1.00985,0.192732
1974.0,1.00784,652.267,3465.86,3463.38,1.00857,0.191452
1977.0,1.00751,652.432,3469.73,3467.25,1.00751,0.190392
1980.0,1.00748,652.597,3473.6,3471.12,1.00687,0.189752
1983.0,1.00843,652.762,3477.47,3474.99,1.0051,0.187982
1986.0,1.00556,652.927,3481.34,3478.85,1.00471,0.187592
1989.0,1.00424,653.092,3485.21,3482.72,1.00457,0.187452
1992.0,1.0046,653.257,3489.07,3486.58,1.00544,0.188322
1995.0,1.0038,653.421,3492.93,3490.44,1.00544,0.188322
1998.0,1.0015,653.586,3496.79,3494.3,1.00151,0.184392
2001.0,1.00224,653.751,3500.65,3498.15,1.00039,0.183272
2004.0,1.00114,653.916,3504.51,3502.01,1.00114,0.184022
2007.0,0.997531,654.081,3508.36,3505.86,1.00168,0.184562
2010.0,0.998451,654.246,3512.21,3509.71,0.999712,0.182594
2013.0,1.00012,654.41,3516.06,3513.56,0.998619,0.181501
2016.0,0.996316,654.575,3519.91,3517.4,0.997066,0.179948
2019.0,0.998656,654.74,3523.76,3521.25,0.996329,0.179211
2022.0,0.994961,654.905,3527.6,3525.09,0.994961,0.177843
2025.0,0.996274,655.07,3531.44,3528.93,0.995412,0.178294
2028.0,0.994383,655.235,3535.28,3532.77,0.99499,0.177872
2031.0,0.99442,655.399,3539.12,3536.61,0.99442,0.177302
2034.0,0.995065,655.564,3542.96,3540.44,0.995065,0.177947
2037.0,0.992499,655.729,3546.79,3544.27,0.992168,0.17505
2040.0,0.995889,655.894,3550.63,3548.1,0.99515,0.178032
2043.0,0.9973,656.059,3554.46,3551.93,0.995469,0.178351
2046.0,0.995451,656.224,3558.28,3555.76,0.995451,0.178333
2047.0,0.996747,656.279,3559.56,3557.04,0.995451,0.178333