File: data/processed/processed_data/2024-10-11/2024-10-11_l-methioninepowder_n_n_n_solid_10000_0_5.csv
Pixels #,Intensity (a.u.),Wavelength (nm),Raman shift (cm-1),Raman shift (cm-1) adjusted,Filtered Intensity (a.u.),Baselined Filtered Intensity (a.u.)
0.0,0.797082,543.803,407.968,406.929,0.796648,-0.00691771
3.0,0.795517,543.967,413.541,412.499,0.796648,-0.00691774
6.0,0.796985,544.132,419.11,418.065,0.796985,-0.00658084
9.0,0.798587,544.297,424.676,423.628,0.797964,-0.00560199
12.0,0.802337,544.462,430.238,429.188,0.796566,-0.00700019
15.0,0.799518,544.627,435.797,434.744,0.79693,-0.00663643
18.0,0.799207,544.792,441.353,440.297,0.79693,-0.00663673
21.0,0.797715,544.957,446.905,445.847,0.795308,-0.00825908
24.0,0.795244,545.121,452.454,451.393,0.795723,-0.0078445
27.0,0.796901,545.286,457.999,456.936,0.796054,-0.00751399
30.0,0.796682,545.451,463.542,462.476,0.797417,-0.00615154
33.0,0.797758,545.616,469.08,468.012,0.798338,-0.00523114
36.0,0.796294,545.781,474.616,473.545,0.797443,-0.00612678
39.0,0.826199,545.946,480.148,479.075,0.798901,-0.00466948
42.0,0.795434,546.11,485.677,484.601,0.797092,-0.00647921
45.0,0.797628,546.275,491.202,490.124,0.797281,-0.006291
48.0,0.800799,546.44,496.725,495.643,0.79956,-0.00401285
51.0,0.798788,546.605,502.243,501.16,0.799521,-0.00405274
54.0,0.810939,546.77,507.759,506.672,0.800179,-0.00339566
57.0,0.800105,546.935,513.271,512.182,0.799502,-0.00407359
60.0,0.801615,547.099,518.78,517.688,0.799345,-0.00423154
63.0,0.798924,547.264,524.285,523.191,0.800183,-0.00339452
66.0,0.801503,547.429,529.788,528.691,0.801902,-0.00167654
69.0,0.802455,547.594,535.287,534.187,0.802976,-0.000603564
72.0,0.803572,547.759,540.782,539.68,0.803572,-8.59118e-06
75.0,0.802908,547.924,546.275,545.17,0.803254,-0.000327604
78.0,0.804053,548.088,551.763,550.656,0.803005,-0.00057762
81.0,0.804018,548.253,557.249,556.139,0.802231,-0.00135264
84.0,0.801094,548.418,562.732,561.619,0.801094,-0.00249067
87.0,0.800476,548.583,568.211,567.096,0.801176,-0.00240971
90.0,0.802754,548.748,573.686,572.569,0.801783,-0.00180378
93.0,0.799286,548.913,579.159,578.039,0.800778,-0.00280985
96.0,0.800104,549.078,584.628,583.506,0.800778,-0.00281094
99.0,0.801282,549.242,590.094,588.969,0.80092,-0.00267005
102.0,0.801612,549.407,595.557,594.429,0.800933,-0.0026582
105.0,0.801606,549.572,601.016,599.886,0.801606,-0.00198636
108.0,0.801034,549.737,606.472,605.339,0.800631,-0.00296253
111.0,0.799796,549.902,611.925,610.79,0.799796,-0.00379872
114.0,0.799935,550.067,617.375,616.237,0.800063,-0.00353294
117.0,0.7995,550.231,622.821,621.68,0.800043,-0.00355419
120.0,0.800123,550.396,628.264,627.121,0.801015,-0.00258345
123.0,0.801491,550.561,633.704,632.558,0.802275,-0.00132474
126.0,0.80273,550.726,639.14,637.992,0.804551,0.000949972
129.0,0.804004,550.891,644.574,643.423,0.804551,0.000948686
132.0,0.807576,551.056,650.004,648.85,0.805259,0.00165541
135.0,0.80249,551.22,655.431,654.274,0.802393,-0.00121185
138.0,0.800533,551.385,660.854,659.695,0.802276,-0.00133012
141.0,0.801348,551.55,666.274,665.113,0.804454,0.000846598
144.0,0.80464,551.715,671.691,670.528,0.804523,0.000914315
147.0,0.803929,551.88,677.105,675.939,0.805015,0.00140504
150.0,0.804605,552.045,682.516,681.347,0.805015,0.00140377
153.0,0.803361,552.209,687.923,686.752,0.803361,-0.000251471
156.0,0.803858,552.374,693.327,692.153,0.803249,-0.000364699
159.0,0.812942,552.539,698.728,697.552,0.803355,-0.000259925
162.0,0.804684,552.704,704.126,702.947,0.804684,0.00106785
165.0,0.806644,552.869,709.52,708.339,0.806644,0.00302663
168.0,0.813164,553.034,714.912,713.727,0.813164,0.00954543
171.0,0.813883,553.199,720.3,719.113,0.815832,0.0122122
174.0,0.81355,553.363,725.684,724.495,0.81355,0.00992905
177.0,0.805626,553.528,731.066,729.874,0.805626,0.00200387
180.0,0.805608,553.693,736.444,735.25,0.80465,0.00102671
183.0,0.804519,553.858,741.82,740.623,0.805863,0.00223857
186.0,0.806045,554.023,747.192,745.992,0.806489,0.00286344
189.0,0.806517,554.188,752.561,751.359,0.806576,0.00294934
192.0,0.810681,554.352,757.926,756.722,0.807431,0.00380326
195.0,0.809963,554.517,763.289,762.082,0.809963,0.00633424
198.0,0.809719,554.682,768.648,767.438,0.808967,0.00533725
201.0,0.806932,554.847,774.004,772.792,0.807017,0.0033863
204.0,0.806969,555.012,779.357,778.142,0.807367,0.00373539
207.0,0.805862,555.177,784.706,783.489,0.806015,0.00238251
210.0,0.806184,555.341,790.053,788.833,0.806184,0.00255066
213.0,0.810752,555.506,795.396,794.174,0.810752,0.00711783
216.0,0.813097,555.671,800.737,799.512,0.813097,0.00946204
219.0,0.810835,555.836,806.074,804.846,0.813802,0.0101663
222.0,0.811605,556.001,811.407,810.178,0.812967,0.0093305
225.0,0.813849,556.166,816.738,815.506,0.812596,0.00895877
228.0,0.810258,556.33,822.066,820.831,0.812524,0.00888603
231.0,0.812219,556.495,827.39,826.153,0.812697,0.00905832
234.0,0.813488,556.66,832.711,831.472,0.812892,0.0092526
237.0,0.811637,556.825,838.029,836.787,0.81488,0.0112399
240.0,0.813486,556.99,843.344,842.1,0.81488,0.0112392
243.0,0.81515,557.155,848.656,847.409,0.815272,0.0116305
246.0,0.818393,557.32,853.965,852.715,0.817834,0.0141918
249.0,0.836209,557.484,859.27,858.018,0.82073,0.0170871
252.0,0.824974,557.649,864.572,863.318,0.825146,0.0215024
255.0,0.830506,557.814,869.872,868.615,0.83165,0.0280057
258.0,0.832904,557.979,875.168,873.908,0.833596,0.0299511
261.0,0.835136,558.144,880.461,879.199,0.833596,0.0299504
264.0,0.827432,558.309,885.751,884.486,0.827432,0.0237857
267.0,0.829038,558.473,891.037,889.77,0.826218,0.022571
270.0,0.822697,558.638,896.321,895.051,0.822132,0.0184843
273.0,0.829203,558.803,901.601,900.329,0.821836,0.0181876
276.0,0.820559,558.968,906.879,905.604,0.819258,0.0156089
279.0,0.8198,559.133,912.153,910.876,0.819357,0.0157072
282.0,0.821999,559.298,917.424,916.145,0.819931,0.0162805
285.0,0.820206,559.462,922.692,921.41,0.819931,0.0162798
288.0,0.818466,559.627,927.957,926.673,0.819578,0.0159262
291.0,0.821935,559.792,933.219,931.932,0.821935,0.0182825
294.0,0.824111,559.957,938.478,937.188,0.824111,0.0204578
297.0,0.825262,560.122,943.733,942.441,0.826819,0.0231651
300.0,0.8273,560.287,948.986,947.691,0.828009,0.0243544
303.0,0.825691,560.452,954.235,952.938,0.825691,0.0220357
306.0,0.825447,560.616,959.482,958.182,0.825447,0.021791
309.0,0.825511,560.781,964.725,963.423,0.825511,0.0218543
312.0,0.821448,560.946,969.965,968.661,0.822395,0.0187376
315.0,0.821912,561.111,975.202,973.896,0.824269,0.0206109
318.0,0.825223,561.276,980.436,979.127,0.825223,0.0215643
321.0,0.824157,561.441,985.667,984.356,0.824157,0.0204976
324.0,0.823074,561.605,990.895,989.581,0.823663,0.0200029
327.0,0.823451,561.77,996.12,994.803,0.823196,0.0195352
330.0,0.821788,561.935,1001.34,1000.02,0.821788,0.0181265
333.0,0.81942,562.1,1006.56,1005.24,0.81988,0.0162178
336.0,0.820411,562.265,1011.78,1010.45,0.820411,0.0167481
339.0,0.822158,562.43,1016.99,1015.66,0.820993,0.0173294
342.0,0.818953,562.594,1022.2,1020.87,0.820363,0.0166987
345.0,0.819904,562.759,1027.4,1026.07,0.821023,0.017358
348.0,0.819319,562.924,1032.61,1031.27,0.820954,0.0172884
351.0,0.822803,563.089,1037.81,1036.47,0.820954,0.0172877
354.0,0.819712,563.254,1043.01,1041.67,0.819544,0.015877
357.0,0.820724,563.419,1048.2,1046.86,0.818854,0.0151863
360.0,0.820003,563.583,1053.39,1052.05,0.820003,0.0163346
363.0,0.823783,563.748,1058.58,1057.23,0.820584,0.0169149
366.0,0.82467,563.913,1063.77,1062.42,0.82467,0.0210002
369.0,0.828731,564.078,1068.95,1067.6,0.824759,0.0210885
372.0,0.8263,564.243,1074.13,1072.77,0.8263,0.0226288
375.0,0.823807,564.408,1079.3,1077.95,0.82382,0.0201481
378.0,0.829396,564.573,1084.48,1083.12,0.823611,0.0199385
381.0,0.823186,564.737,1089.65,1088.28,0.821567,0.0178938
384.0,0.820039,564.902,1094.81,1093.45,0.82127,0.0175961
387.0,0.819737,565.067,1099.98,1098.61,0.819737,0.0160624
390.0,0.821389,565.232,1105.14,1103.77,0.819666,0.0159907
393.0,0.819827,565.397,1110.3,1108.93,0.819827,0.016151
396.0,0.821389,565.562,1115.45,1114.08,0.820435,0.0167583
399.0,0.823923,565.726,1120.6,1119.23,0.821698,0.0180206
402.0,0.821158,565.891,1125.75,1124.37,0.821387,0.0177089
405.0,0.832861,566.056,1130.9,1129.52,0.821248,0.0175692
408.0,0.82247,566.221,1136.04,1134.66,0.820363,0.0166836
411.0,0.820098,566.386,1141.18,1139.8,0.820363,0.0166829
414.0,0.821242,566.551,1146.32,1144.93,0.821877,0.0181962
417.0,0.824969,566.715,1151.45,1150.06,0.822943,0.0192615
420.0,0.822419,566.88,1156.58,1155.19,0.823109,0.0194268
423.0,0.822035,567.045,1161.71,1160.32,0.822364,0.0186811
426.0,0.824883,567.21,1166.84,1165.44,0.823796,0.0201124
429.0,0.823044,567.375,1171.96,1170.56,0.824138,0.0204537
432.0,0.827118,567.54,1177.08,1175.68,0.827118,0.023433
435.0,0.825152,567.704,1182.19,1180.79,0.825206,0.0215203
438.0,0.821575,567.869,1187.31,1185.9,0.821951,0.0182647
441.0,0.822553,568.034,1192.42,1191.01,0.821951,0.018264
444.0,0.820284,568.199,1197.52,1196.11,0.818933,0.0152453
447.0,0.821252,568.364,1202.63,1201.21,0.818164,0.0144756
450.0,0.819752,568.529,1207.73,1206.31,0.818164,0.0144749
453.0,0.82662,568.694,1212.83,1211.41,0.818704,0.0150142
456.0,0.819322,568.858,1217.92,1216.5,0.819322,0.0156315
459.0,0.820713,569.023,1223.02,1221.59,0.820713,0.0170218
462.0,0.817571,569.188,1228.11,1226.68,0.820153,0.0164611
465.0,0.819346,569.353,1233.19,1231.76,0.820153,0.0164604
468.0,0.821921,569.518,1238.28,1236.85,0.821921,0.0182278
471.0,0.825507,569.683,1243.36,1241.92,0.825013,0.0213191
474.0,0.825856,569.847,1248.43,1247,0.823954,0.0202594
477.0,0.822846,570.012,1253.51,1252.07,0.823257,0.0195617
480.0,0.820801,570.177,1258.58,1257.14,0.822529,0.018833
483.0,0.824883,570.342,1263.65,1262.21,0.822898,0.0192013
486.0,0.826559,570.507,1268.72,1267.27,0.823564,0.0198666
489.0,0.823111,570.672,1273.78,1272.33,0.821639,0.0179409
492.0,0.820116,570.836,1278.84,1277.39,0.821639,0.0179402
495.0,0.822182,571.001,1283.9,1282.44,0.822182,0.0184825
498.0,0.819559,571.166,1288.95,1287.5,0.819559,0.0158589
501.0,0.821731,571.331,1294,1292.55,0.821731,0.0180302
504.0,0.819569,571.496,1299.05,1297.59,0.820258,0.0165565
507.0,0.821371,571.661,1304.1,1302.63,0.821371,0.0176688
510.0,0.823513,571.825,1309.14,1307.67,0.824877,0.0211741
513.0,0.832125,571.99,1314.18,1312.71,0.833369,0.0296654
516.0,0.834979,572.155,1319.22,1317.75,0.834979,0.0312747
519.0,0.840645,572.32,1324.25,1322.78,0.840645,0.03694
522.0,0.835313,572.485,1329.28,1327.81,0.836551,0.0328453
525.0,0.836823,572.65,1334.31,1332.83,0.835835,0.0321286
528.0,0.834222,572.815,1339.33,1337.86,0.834222,0.030515
531.0,0.833361,572.979,1344.36,1342.88,0.835088,0.0313803
534.0,0.840739,573.144,1349.38,1347.89,0.842369,0.0386606
537.0,0.844595,573.309,1354.39,1352.91,0.842369,0.0386599
540.0,0.839754,573.474,1359.41,1357.92,0.839754,0.0360442
543.0,0.834614,573.639,1364.42,1362.93,0.834614,0.0309035
546.0,0.829032,573.804,1369.43,1367.93,0.829032,0.0253208
549.0,0.824318,573.968,1374.43,1372.94,0.824318,0.0206061
552.0,0.827562,574.133,1379.43,1377.94,0.822606,0.0188934
555.0,0.820447,574.298,1384.43,1382.93,0.821379,0.0176657
558.0,0.821415,574.463,1389.43,1387.93,0.823215,0.0195011
561.0,0.824685,574.628,1394.42,1392.92,0.824383,0.0206684
564.0,0.827349,574.793,1399.41,1397.91,0.827349,0.0236337
567.0,0.834925,574.957,1404.4,1402.89,0.834925,0.031209
570.0,0.83999,575.122,1409.39,1407.87,0.83999,0.0362733
573.0,0.856078,575.287,1414.37,1412.85,0.843827,0.0401096
576.0,0.848226,575.452,1419.35,1417.83,0.844937,0.0412189
579.0,0.849082,575.617,1424.32,1422.81,0.845925,0.0422062
582.0,0.844742,575.782,1429.3,1427.78,0.844742,0.0410225
585.0,0.862073,575.946,1434.27,1432.74,0.846464,0.0427438
588.0,0.850441,576.111,1439.24,1437.71,0.847356,0.0436352
591.0,0.847761,576.276,1444.2,1442.67,0.848471,0.0447495
594.0,0.847255,576.441,1449.16,1447.63,0.847255,0.0435328
597.0,0.840408,576.606,1454.12,1452.59,0.840408,0.0366851
600.0,0.836494,576.771,1459.08,1457.54,0.831802,0.0280784
603.0,0.823416,576.936,1464.03,1462.5,0.826744,0.0230197
606.0,0.83071,577.1,1468.98,1467.44,0.82217,0.018445
609.0,0.820815,577.265,1473.93,1472.39,0.821902,0.0181763
612.0,0.82189,577.43,1478.88,1477.33,0.821902,0.0181756
615.0,0.820824,577.595,1483.82,1482.27,0.819193,0.0154659
618.0,0.822171,577.76,1488.76,1487.21,0.819914,0.0161863
621.0,0.822233,577.925,1493.7,1492.14,0.823543,0.0198146
624.0,0.824511,578.089,1498.63,1497.08,0.823543,0.0198139
627.0,0.821602,578.254,1503.56,1502.01,0.821825,0.0180952
630.0,0.851603,578.419,1508.49,1506.93,0.824205,0.0204745
633.0,0.822845,578.584,1513.41,1511.85,0.824205,0.0204738
636.0,0.82434,578.749,1518.34,1516.77,0.82434,0.0206081
639.0,0.823292,578.914,1523.26,1521.69,0.823881,0.0201484
642.0,0.822758,579.078,1528.17,1526.61,0.822618,0.0188847
645.0,0.821629,579.243,1533.09,1531.52,0.821498,0.017764
648.0,0.819619,579.408,1538,1536.43,0.819619,0.0158844
651.0,0.819893,579.573,1542.91,1541.33,0.819893,0.0161577
654.0,0.819887,579.738,1547.82,1546.24,0.820136,0.0164
657.0,0.822004,579.903,1552.72,1551.14,0.821756,0.0180193
660.0,0.820679,580.067,1557.62,1556.04,0.821053,0.0173156
663.0,0.821057,580.232,1562.52,1560.93,0.821053,0.0173149
666.0,0.831071,580.397,1567.41,1565.83,0.820768,0.0170292
669.0,0.820955,580.562,1572.3,1570.72,0.820955,0.0172155
672.0,0.89608,580.727,1577.19,1575.6,0.82059,0.0168498
675.0,0.821166,580.892,1582.08,1580.49,0.820278,0.0165371
678.0,0.820616,581.057,1586.96,1585.37,0.820466,0.0167244
681.0,0.822143,581.221,1591.84,1590.25,0.822143,0.0184008
684.0,0.821057,581.386,1596.72,1595.12,0.821899,0.0181561
687.0,0.823013,581.551,1601.6,1600,0.822158,0.0184144
690.0,0.822108,581.716,1606.47,1604.87,0.822158,0.0184137
693.0,0.820971,581.881,1611.34,1609.73,0.823113,0.019368
696.0,0.822688,582.046,1616.21,1614.6,0.823444,0.0196983
699.0,0.821855,582.21,1621.07,1619.46,0.82678,0.0230336
702.0,0.829095,582.375,1625.93,1624.32,0.822765,0.0190179
705.0,0.821952,582.54,1630.79,1629.18,0.822765,0.0190172
708.0,0.825212,582.705,1635.65,1634.03,0.822997,0.0192485
711.0,0.822732,582.87,1640.5,1638.88,0.82256,0.0188109
714.0,0.820374,583.035,1645.35,1643.73,0.821651,0.0179012
717.0,0.818814,583.199,1650.2,1648.57,0.821086,0.0173355
720.0,0.821051,583.364,1655.04,1653.42,0.820503,0.0167518
723.0,0.817512,583.529,1659.89,1658.26,0.817726,0.0139741
726.0,0.82048,583.694,1664.73,1663.1,0.82048,0.0167274
729.0,0.818626,583.859,1669.56,1667.93,0.818197,0.0144437
732.0,0.817986,584.024,1674.4,1672.76,0.817301,0.013547
735.0,0.817418,584.188,1679.23,1677.59,0.817418,0.0136633
738.0,0.818153,584.353,1684.06,1682.42,0.818408,0.0146526
741.0,0.817543,584.518,1688.88,1687.24,0.817543,0.013787
744.0,0.816857,584.683,1693.71,1692.06,0.816963,0.0132063
747.0,0.819023,584.848,1698.53,1696.88,0.819023,0.0152656
750.0,0.815964,585.013,1703.35,1701.7,0.816377,0.0126189
753.0,0.818448,585.178,1708.16,1706.51,0.81802,0.0142612
756.0,0.817508,585.342,1712.97,1711.32,0.817508,0.0137485
759.0,0.815924,585.507,1717.78,1716.13,0.817139,0.0133788
762.0,0.817051,585.672,1722.59,1720.93,0.817051,0.0132901
765.0,0.815743,585.837,1727.39,1725.73,0.81599,0.0122284
768.0,0.817018,586.002,1732.2,1730.53,0.817018,0.0132557
771.0,0.818841,586.167,1737,1735.33,0.817675,0.0139121
774.0,0.820192,586.331,1741.79,1740.12,0.817675,0.0139114
777.0,0.816447,586.496,1746.58,1744.91,0.816447,0.0126827
780.0,0.815517,586.661,1751.38,1749.7,0.815574,0.011809
783.0,0.868708,586.826,1756.16,1754.49,0.816252,0.0124863
786.0,0.819562,586.991,1760.95,1759.27,0.81579,0.0120236
789.0,0.818721,587.156,1765.73,1764.05,0.817426,0.0136589
792.0,0.817584,587.32,1770.51,1768.83,0.817426,0.0136582
795.0,0.819055,587.485,1775.29,1773.61,0.81566,0.0118915
798.0,0.827704,587.65,1780.06,1778.38,0.817326,0.0135568
801.0,0.817068,587.815,1784.84,1783.15,0.816512,0.0127422
804.0,0.816005,587.98,1789.61,1787.91,0.81565,0.0118795
807.0,0.816051,588.145,1794.37,1792.68,0.814789,0.0110178
810.0,0.814985,588.309,1799.14,1797.44,0.814985,0.0112131
813.0,0.815887,588.474,1803.9,1802.2,0.816809,0.0130364
816.0,0.816882,588.639,1808.66,1806.96,0.816809,0.0130358
819.0,0.815761,588.804,1813.41,1811.71,0.815761,0.0119871
822.0,0.815429,588.969,1818.17,1816.46,0.815429,0.0116545
825.0,0.817464,589.134,1822.92,1821.21,0.81721,0.0134348
828.0,0.818982,589.299,1827.66,1825.96,0.816583,0.0128071
831.0,0.816506,589.463,1832.41,1830.7,0.816506,0.0127295
834.0,0.815614,589.628,1837.15,1835.44,0.816092,0.0123148
837.0,0.815284,589.793,1841.89,1840.18,0.816092,0.0123141
840.0,0.815834,589.958,1846.63,1844.91,0.815834,0.0120555
843.0,0.81806,590.123,1851.36,1849.65,0.816585,0.0128058
846.0,0.820672,590.288,1856.1,1854.37,0.82206,0.0182801
849.0,0.814291,590.452,1860.83,1859.1,0.81729,0.0135095
852.0,0.815069,590.617,1865.55,1863.83,0.81729,0.0135088
855.0,0.816628,590.782,1870.28,1868.55,0.817415,0.0136332
858.0,0.816253,590.947,1875,1873.27,0.816253,0.0124705
861.0,0.817209,591.112,1879.72,1877.98,0.817209,0.0134258
864.0,0.815584,591.277,1884.43,1882.7,0.818729,0.0149452
867.0,0.829727,591.441,1889.15,1887.41,0.818363,0.0145785
870.0,0.819459,591.606,1893.86,1892.12,0.817509,0.0137238
873.0,0.821294,591.771,1898.57,1896.83,0.816182,0.0123962
876.0,0.81759,591.936,1903.27,1901.53,0.815825,0.0120385
879.0,0.816569,592.101,1907.98,1906.23,0.816569,0.0127818
882.0,0.816361,592.266,1912.68,1910.93,0.817937,0.0141492
885.0,0.813812,592.43,1917.38,1915.62,0.817738,0.0139495
888.0,0.819167,592.595,1922.07,1920.32,0.817894,0.0141049
891.0,0.817029,592.76,1926.76,1925.01,0.816473,0.0126832
894.0,0.815822,592.925,1931.45,1929.7,0.81647,0.0126795
897.0,0.817041,593.09,1936.14,1934.38,0.817041,0.0132499
900.0,0.817733,593.255,1940.83,1939.06,0.816266,0.0124742
903.0,0.815579,593.42,1945.51,1943.74,0.815767,0.0119745
906.0,0.820447,593.584,1950.19,1948.42,0.819282,0.0154889
909.0,0.817743,593.749,1954.86,1953.1,0.818643,0.0148492
912.0,0.81734,593.914,1959.54,1957.77,0.81734,0.0135455
915.0,0.817257,594.079,1964.21,1962.44,0.816342,0.0125469
918.0,0.818118,594.244,1968.88,1967.11,0.815872,0.0120762
921.0,0.817494,594.409,1973.55,1971.77,0.817107,0.0133106
924.0,0.816027,594.573,1978.21,1976.43,0.817107,0.0133099
927.0,0.817975,594.738,1982.87,1981.09,0.817975,0.0141772
930.0,0.814014,594.903,1987.53,1985.75,0.816658,0.0128596
933.0,0.817937,595.068,1992.19,1990.4,0.817937,0.0141379
936.0,0.813969,595.233,1996.84,1995.05,0.816675,0.0128752
939.0,0.819954,595.398,2001.49,1999.7,0.818115,0.0143146
942.0,0.814879,595.562,2006.14,2004.35,0.816036,0.0122349
945.0,0.816548,595.727,2010.79,2008.99,0.816036,0.0122342
948.0,0.816777,595.892,2015.43,2013.63,0.816777,0.0129746
951.0,0.8188,596.057,2020.07,2018.27,0.819225,0.0154219
954.0,0.816559,596.222,2024.71,2022.91,0.817426,0.0136223
957.0,0.815004,596.387,2029.35,2027.54,0.815004,0.0111996
960.0,0.815851,596.551,2033.98,2032.17,0.815851,0.0120459
963.0,0.816593,596.716,2038.61,2036.8,0.818963,0.0151573
966.0,0.815192,596.881,2043.24,2041.43,0.816082,0.0122756
969.0,0.820124,597.046,2047.86,2046.05,0.816128,0.0123209
972.0,0.818523,597.211,2052.49,2050.67,0.818523,0.0147153
975.0,0.820898,597.376,2057.11,2055.29,0.818046,0.0142376
978.0,0.8172,597.541,2061.73,2059.91,0.81705,0.0132409
981.0,0.813521,597.705,2066.34,2064.52,0.816692,0.0128823
984.0,0.817891,597.87,2070.95,2069.13,0.817891,0.0140806
987.0,0.819247,598.035,2075.56,2073.74,0.819247,0.015436
990.0,0.816962,598.2,2080.17,2078.34,0.81584,0.0120283
993.0,0.816868,598.365,2084.78,2082.95,0.81584,0.0120276
996.0,0.822592,598.53,2089.38,2087.55,0.817117,0.013304
999.0,0.823862,598.694,2093.98,2092.15,0.817299,0.0134853
1002.0,0.817297,598.859,2098.58,2096.74,0.817297,0.0134826
1005.0,0.816496,599.024,2103.17,2101.33,0.816428,0.012613
1008.0,0.821754,599.189,2107.77,2105.93,0.817231,0.0134153
1011.0,0.817676,599.354,2112.36,2110.51,0.817231,0.0134146
1014.0,0.815906,599.519,2116.94,2115.1,0.816149,0.012332
1017.0,0.815911,599.683,2121.53,2119.68,0.816298,0.0124803
1020.0,0.817895,599.848,2126.11,2124.26,0.818932,0.0151137
1023.0,0.816604,600.013,2130.69,2128.84,0.818305,0.014486
1026.0,0.815261,600.178,2135.27,2133.41,0.817144,0.0133243
1029.0,0.818483,600.343,2139.84,2137.99,0.817144,0.0133237
1032.0,0.817709,600.508,2144.42,2142.56,0.817549,0.013728
1035.0,0.81457,600.672,2148.99,2147.13,0.817549,0.0137273
1038.0,0.815221,600.837,2153.55,2151.69,0.816583,0.0127607
1041.0,0.817287,601.002,2158.12,2156.25,0.817858,0.014035
1044.0,0.826509,601.167,2162.68,2160.81,0.817858,0.0140343
1047.0,0.81374,601.332,2167.24,2165.37,0.815582,0.0117577
1050.0,0.816605,601.497,2171.8,2169.93,0.816605,0.01278
1053.0,0.815274,601.662,2176.35,2174.48,0.815294,0.0114684
1056.0,0.815981,601.826,2180.9,2179.03,0.815981,0.0121547
1059.0,0.816876,601.991,2185.45,2183.58,0.816324,0.012497
1062.0,0.815274,602.156,2190,2188.12,0.81557,0.0117424
1065.0,0.814746,602.321,2194.55,2192.67,0.81557,0.0117417
1068.0,0.817278,602.486,2199.09,2197.21,0.816772,0.012943
1071.0,0.817473,602.651,2203.63,2201.74,0.816933,0.0131034
1074.0,0.816873,602.815,2208.17,2206.28,0.8168,0.0129697
1077.0,0.814978,602.98,2212.7,2210.81,0.815363,0.011532
1080.0,0.816373,603.145,2217.23,2215.34,0.816373,0.0125414
1083.0,0.81989,603.31,2221.76,2219.87,0.81989,0.0160577
1086.0,0.815013,603.475,2226.29,2224.4,0.819554,0.0157211
1089.0,0.817465,603.64,2230.82,2228.92,0.817465,0.0136314
1092.0,0.816591,603.804,2235.34,2233.44,0.816189,0.0123547
1095.0,0.822466,603.969,2239.86,2237.96,0.816189,0.0123541
1098.0,0.81885,604.134,2244.38,2242.47,0.815245,0.0114094
1101.0,0.820286,604.299,2248.89,2246.99,0.816871,0.0130347
1104.0,0.81548,604.464,2253.41,2251.5,0.816871,0.0130341
1107.0,0.816035,604.629,2257.92,2256,0.816035,0.0121974
1110.0,0.815679,604.794,2262.42,2260.51,0.817154,0.0133157
1113.0,0.819238,604.958,2266.93,2265.01,0.817529,0.0136901
1116.0,0.815351,605.123,2271.43,2269.51,0.816562,0.0127224
1119.0,0.81997,605.288,2275.93,2274.01,0.819915,0.0160748
1122.0,0.818693,605.453,2280.43,2278.51,0.816583,0.0127421
1125.0,0.818759,605.618,2284.93,2283,0.816583,0.0127414
1128.0,0.817779,605.783,2289.42,2287.49,0.816951,0.0131088
1131.0,0.816544,605.947,2293.91,2291.98,0.816174,0.0123311
1134.0,0.819109,606.112,2298.4,2296.47,0.816174,0.0123304
1137.0,0.819705,606.277,2302.88,2300.95,0.818633,0.0147888
1140.0,0.816444,606.442,2307.37,2305.43,0.817855,0.0140101
1143.0,0.815054,606.607,2311.85,2309.91,0.817037,0.0131914
1146.0,0.818915,606.772,2316.33,2314.39,0.818471,0.0146248
1149.0,0.816521,606.936,2320.8,2318.86,0.816468,0.0126211
1152.0,0.816479,607.101,2325.28,2323.33,0.815212,0.0113645
1155.0,0.82276,607.266,2329.75,2327.8,0.816622,0.0127738
1158.0,0.818054,607.431,2334.22,2332.27,0.816959,0.0131101
1161.0,0.817784,607.596,2338.68,2336.73,0.817304,0.0134545
1164.0,0.817053,607.761,2343.15,2341.19,0.815936,0.0120858
1167.0,0.822402,607.925,2347.61,2345.65,0.815936,0.0120851
1170.0,0.814973,608.09,2352.07,2350.11,0.815102,0.0112505
1173.0,0.820262,608.255,2356.52,2354.57,0.818296,0.0144438
1176.0,0.816345,608.42,2360.98,2359.02,0.817489,0.0136361
1179.0,0.815399,608.585,2365.43,2363.47,0.816811,0.0129575
1182.0,0.814817,608.75,2369.88,2367.91,0.816259,0.0124048
1185.0,0.815108,608.915,2374.33,2372.36,0.818307,0.0144522
1188.0,0.817579,609.079,2378.77,2376.8,0.817581,0.0137255
1191.0,0.816897,609.244,2383.21,2381.24,0.816897,0.0130408
1194.0,0.818911,609.409,2387.65,2385.68,0.818911,0.0150542
1197.0,0.816786,609.574,2392.09,2390.12,0.819474,0.0156165
1200.0,0.819595,609.739,2396.52,2394.55,0.819595,0.0157368
1203.0,0.816968,609.904,2400.96,2398.98,0.816968,0.0131092
1206.0,0.817021,610.068,2405.39,2403.41,0.817021,0.0131615
1209.0,0.817262,610.233,2409.82,2407.83,0.817262,0.0134018
1212.0,0.817454,610.398,2414.24,2412.26,0.817445,0.0135842
1215.0,0.817374,610.563,2418.66,2416.68,0.817374,0.0135125
1218.0,0.815391,610.728,2423.08,2421.1,0.816674,0.0128119
1221.0,0.81986,610.893,2427.5,2425.51,0.81685,0.0129872
1224.0,0.816963,611.057,2431.92,2429.93,0.816567,0.0127035
1227.0,0.818004,611.222,2436.33,2434.34,0.816362,0.0124979
1230.0,0.816884,611.387,2440.74,2438.75,0.816884,0.0130192
1233.0,0.817548,611.552,2445.15,2443.15,0.817462,0.0135965
1236.0,0.815507,611.717,2449.56,2447.56,0.817426,0.0135599
1239.0,0.817825,611.882,2453.96,2451.96,0.817797,0.0139302
1242.0,0.818844,612.046,2458.36,2456.36,0.817797,0.0139296
1245.0,0.820609,612.211,2462.76,2460.75,0.81756,0.0136919
1248.0,0.81724,612.376,2467.16,2465.15,0.818905,0.0150362
1251.0,0.817762,612.541,2471.55,2469.54,0.81798,0.0141106
1254.0,0.817906,612.706,2475.95,2473.93,0.817906,0.0140359
1257.0,0.819547,612.871,2480.34,2478.32,0.819547,0.0156762
1260.0,0.81852,613.036,2484.72,2482.71,0.81852,0.0146486
1263.0,0.815809,613.2,2489.11,2487.09,0.815987,0.0121149
1266.0,0.818526,613.365,2493.49,2491.47,0.818526,0.0146532
1269.0,0.818588,613.53,2497.87,2495.85,0.81847,0.0145966
1272.0,0.817363,613.695,2502.25,2500.22,0.817363,0.0134889
1275.0,0.820932,613.86,2506.63,2504.6,0.817313,0.0134383
1278.0,0.816069,614.025,2511,2508.97,0.817165,0.0132896
1281.0,0.815958,614.189,2515.37,2513.34,0.816291,0.0124149
1284.0,0.816854,614.354,2519.74,2517.7,0.816291,0.0124143
1287.0,0.832634,614.519,2524.1,2522.07,0.817346,0.0134686
1290.0,0.817907,614.684,2528.47,2526.43,0.817346,0.0134679
1293.0,0.819995,614.849,2532.83,2530.79,0.81896,0.0150813
1296.0,0.819958,615.014,2537.19,2535.15,0.819122,0.0152426
1299.0,0.818938,615.178,2541.55,2539.5,0.817829,0.0139489
1302.0,0.821189,615.343,2545.9,2543.85,0.817829,0.0139483
1305.0,0.818015,615.508,2550.25,2548.2,0.818015,0.0141336
1308.0,0.816237,615.673,2554.6,2552.55,0.817506,0.013624
1311.0,0.81764,615.838,2558.95,2556.9,0.817581,0.0136983
1314.0,0.818108,616.003,2563.3,2561.24,0.818004,0.0141206
1317.0,0.818901,616.167,2567.64,2565.58,0.818891,0.015007
1320.0,0.823978,616.332,2571.98,2569.92,0.818909,0.0150243
1323.0,0.829819,616.497,2576.32,2574.26,0.818462,0.0145766
1326.0,0.819982,616.662,2580.65,2578.59,0.818842,0.014956
1329.0,0.81868,616.827,2584.99,2582.92,0.81868,0.0147933
1332.0,0.81806,616.992,2589.32,2587.25,0.818059,0.0141716
1335.0,0.820885,617.157,2593.65,2591.58,0.81689,0.013002
1338.0,0.821895,617.321,2597.97,2595.9,0.819715,0.0158263
1341.0,0.818564,617.486,2602.3,2600.22,0.819715,0.0158257
1344.0,0.818897,617.651,2606.62,2604.54,0.819239,0.015349
1347.0,0.820956,617.816,2610.94,2608.86,0.820302,0.0164113
1350.0,0.825893,617.981,2615.26,2613.18,0.820064,0.0161727
1353.0,0.818851,618.146,2619.57,2617.49,0.819106,0.015214
1356.0,0.819086,618.31,2623.89,2621.8,0.819106,0.0152133
1359.0,0.819609,618.475,2628.2,2626.11,0.819846,0.0159527
1362.0,0.818779,618.64,2632.5,2630.42,0.818989,0.015095
1365.0,0.817734,618.805,2636.81,2634.72,0.817954,0.0140593
1368.0,0.818784,618.97,2641.11,2639.02,0.818784,0.0148887
1371.0,0.817611,619.135,2645.42,2643.32,0.818365,0.014469
1374.0,0.817741,619.299,2649.71,2647.62,0.818365,0.0144684
1377.0,0.819821,619.464,2654.01,2651.91,0.819965,0.0160677
1380.0,0.822179,619.629,2658.31,2656.21,0.820991,0.017093
1383.0,0.818425,619.794,2662.6,2660.5,0.817824,0.0139254
1386.0,0.82085,619.959,2666.89,2664.78,0.820844,0.0169447
1389.0,0.821382,620.124,2671.18,2669.07,0.821382,0.017482
1392.0,0.829835,620.288,2675.46,2673.35,0.818271,0.0143704
1395.0,0.8217,620.453,2679.74,2677.63,0.820432,0.0165307
1398.0,0.817492,620.618,2684.03,2681.91,0.819626,0.015724
1401.0,0.818212,620.783,2688.3,2686.19,0.818228,0.0143254
1404.0,0.816004,620.948,2692.58,2690.46,0.818228,0.0143247
1407.0,0.816086,621.113,2696.85,2694.74,0.818535,0.0146311
1410.0,0.819765,621.278,2701.13,2699.01,0.819278,0.0153734
1413.0,0.820073,621.442,2705.4,2703.27,0.820073,0.0161677
1416.0,0.820201,621.607,2709.66,2707.54,0.820201,0.0162951
1419.0,0.82117,621.772,2713.93,2711.8,0.821001,0.0170944
1422.0,0.824262,621.937,2718.19,2716.06,0.818543,0.0146357
1425.0,0.818359,622.102,2722.45,2720.32,0.818359,0.0144511
1428.0,0.826976,622.267,2726.71,2724.58,0.820643,0.0167344
1431.0,0.817726,622.431,2730.96,2728.83,0.81979,0.0158807
1434.0,0.821379,622.596,2735.22,2733.08,0.81979,0.0158801
1437.0,0.82237,622.761,2739.47,2737.33,0.819064,0.0151534
1440.0,0.819101,622.926,2743.72,2741.58,0.820356,0.0164448
1443.0,0.820626,623.091,2747.97,2745.82,0.820626,0.0167141
1446.0,0.82157,623.256,2752.21,2750.07,0.821361,0.0174484
1449.0,0.817853,623.42,2756.45,2754.31,0.819447,0.0155338
1452.0,0.818625,623.585,2760.69,2758.55,0.818625,0.0147111
1455.0,0.820059,623.75,2764.93,2762.78,0.820059,0.0161444
1458.0,0.817,623.915,2769.17,2767.01,0.818929,0.0150138
1461.0,0.831203,624.08,2773.4,2771.25,0.819208,0.0152921
1464.0,0.818099,624.245,2777.63,2775.48,0.818845,0.0149284
1467.0,0.816539,624.409,2781.86,2779.7,0.818967,0.0150498
1470.0,0.816969,624.574,2786.09,2783.93,0.818967,0.0150491
1473.0,0.818973,624.739,2790.31,2788.15,0.819154,0.0152355
1476.0,0.819868,624.904,2794.53,2792.37,0.819861,0.0159418
1479.0,0.82096,625.069,2798.75,2796.59,0.82096,0.0170401
1482.0,0.819,625.234,2802.97,2800.8,0.820515,0.0165945
1485.0,0.821205,625.399,2807.19,2805.02,0.821205,0.0172838
1488.0,0.820024,625.563,2811.4,2809.23,0.822529,0.0186071
1491.0,0.822939,625.728,2815.61,2813.44,0.824798,0.0208755
1494.0,0.823539,625.893,2819.82,2817.65,0.825191,0.0212678
1497.0,0.825372,626.058,2824.03,2821.85,0.825666,0.0217421
1500.0,0.82788,626.223,2828.23,2826.05,0.829206,0.0252815
1503.0,0.833268,626.388,2832.44,2830.25,0.833228,0.0293028
1506.0,0.835916,626.552,2836.64,2834.45,0.835916,0.0319902
1509.0,0.835829,626.717,2840.83,2838.65,0.839706,0.0357795
1512.0,0.841961,626.882,2845.03,2842.84,0.841961,0.0380338
1515.0,0.857667,627.047,2849.22,2847.03,0.845391,0.0414632
1518.0,0.84736,627.212,2853.41,2851.22,0.848662,0.0447335
1521.0,0.849597,627.377,2857.6,2855.41,0.848774,0.0448448
1524.0,0.849665,627.541,2861.79,2859.59,0.848774,0.0448442
1527.0,0.848828,627.706,2865.97,2863.78,0.847504,0.0435735
1530.0,0.848344,627.871,2870.16,2867.96,0.847173,0.0432418
1533.0,0.847563,628.036,2874.34,2872.14,0.846213,0.0422812
1536.0,0.845841,628.201,2878.52,2876.31,0.845841,0.0419085
1539.0,0.848867,628.366,2882.69,2880.49,0.848867,0.0449339
1542.0,0.849267,628.53,2886.87,2884.66,0.852947,0.0490132
1545.0,0.859754,628.695,2891.04,2888.83,0.855166,0.0512315
1548.0,0.858515,628.86,2895.21,2892.99,0.858515,0.0545799
1551.0,0.870357,629.025,2899.37,2897.16,0.870357,0.0664212
1554.0,0.894587,629.19,2903.54,2901.32,0.894587,0.0906505
1557.0,0.934708,629.355,2907.7,2905.48,0.934708,0.130771
1560.0,0.9717,629.52,2911.86,2909.64,0.9717,0.167762
1563.0,0.990254,629.684,2916.02,2913.8,0.986672,0.182734
1566.0,0.983149,629.849,2920.18,2917.95,0.983149,0.17921
1569.0,0.957354,630.014,2924.33,2922.1,0.957354,0.153414
1572.0,0.935606,630.179,2928.48,2926.25,0.937866,0.133926
1575.0,0.91796,630.344,2932.63,2930.4,0.91796,0.114019
1578.0,0.899789,630.509,2936.78,2934.55,0.899789,0.0958472
1581.0,0.88574,630.673,2940.93,2938.69,0.88574,0.0817976
1584.0,0.873855,630.838,2945.07,2942.83,0.873855,0.0699119
1587.0,0.86722,631.003,2949.21,2946.97,0.871019,0.0670752
1590.0,0.864542,631.168,2953.35,2951.11,0.866632,0.0626876
1593.0,0.866084,631.333,2957.49,2955.24,0.868359,0.0644139
1596.0,0.881322,631.498,2961.62,2959.38,0.873922,0.0699762
1599.0,0.868804,631.662,2965.75,2963.51,0.869952,0.0660056
1602.0,0.869968,631.827,2969.88,2967.64,0.869952,0.0660049
1605.0,0.872388,631.992,2974.01,2971.76,0.87125,0.0673023
1608.0,0.870434,632.157,2978.14,2975.89,0.87125,0.0673016
1611.0,0.869436,632.322,2982.26,2980.01,0.869932,0.0659829
1614.0,0.869961,632.487,2986.38,2984.13,0.869932,0.0659823
1617.0,0.861733,632.651,2990.5,2988.24,0.861733,0.0577826
1620.0,0.854596,632.816,2994.62,2992.36,0.854596,0.0506449
1623.0,0.84645,632.981,2998.73,2996.47,0.848118,0.0441663
1626.0,0.841086,633.146,3002.85,3000.58,0.841086,0.0371336
1629.0,0.833464,633.311,3006.96,3004.69,0.833464,0.0295109
1632.0,0.830839,633.476,3011.07,3008.8,0.831449,0.0274953
1635.0,0.826124,633.641,3015.17,3012.91,0.826386,0.0224316
1638.0,0.825143,633.805,3019.28,3017.01,0.825143,0.021188
1641.0,0.824362,633.97,3023.38,3021.11,0.823791,0.0198353
1644.0,0.823991,634.135,3027.48,3025.21,0.823791,0.0198346
1647.0,0.822931,634.3,3031.58,3029.3,0.822192,0.018235
1650.0,0.821973,634.465,3035.68,3033.4,0.821994,0.0180363
1653.0,0.822533,634.63,3039.77,3037.49,0.822027,0.0180686
1656.0,0.822049,634.794,3043.86,3041.58,0.822027,0.018068
1659.0,0.820126,634.959,3047.95,3045.67,0.820729,0.0167693
1662.0,0.821283,635.124,3052.04,3049.75,0.820393,0.0164327
1665.0,0.820231,635.289,3056.12,3053.84,0.820197,0.016236
1668.0,0.819389,635.454,3060.21,3057.92,0.819315,0.0153533
1671.0,0.818599,635.619,3064.29,3062,0.819315,0.0153527
1674.0,0.825818,635.783,3068.37,3066.07,0.819476,0.015513
1677.0,0.816053,635.948,3072.44,3070.15,0.818258,0.0142943
1680.0,0.817795,636.113,3076.52,3074.22,0.816981,0.0130167
1683.0,0.816245,636.278,3080.59,3078.29,0.816303,0.012338
1686.0,0.816535,636.443,3084.66,3082.36,0.816303,0.0123373
1689.0,0.816373,636.608,3088.73,3086.43,0.816527,0.0125607
1692.0,0.816219,636.772,3092.8,3090.49,0.816219,0.012252
1695.0,0.815152,636.937,3096.86,3094.55,0.815152,0.0111844
1698.0,0.817947,637.102,3100.92,3098.61,0.817947,0.0139787
1701.0,0.814621,637.267,3104.98,3102.67,0.817218,0.013249
1704.0,0.812931,637.432,3109.04,3106.73,0.816227,0.0122574
1707.0,0.817657,637.597,3113.1,3110.78,0.816398,0.0124277
1710.0,0.815395,637.762,3117.15,3114.83,0.815418,0.011447
1713.0,0.812684,637.926,3121.2,3118.88,0.815418,0.0114464
1716.0,0.814556,638.091,3125.25,3122.93,0.814556,0.0105837
1719.0,0.815274,638.256,3129.3,3126.98,0.814921,0.010948
1722.0,0.817266,638.421,3133.34,3131.02,0.814921,0.0109474
1725.0,0.815473,638.586,3137.39,3135.06,0.813687,0.00971272
1728.0,0.814352,638.751,3141.43,3139.1,0.814352,0.0103771
1731.0,0.812674,638.915,3145.47,3143.14,0.814806,0.0108304
1734.0,0.812699,639.08,3149.51,3147.17,0.814725,0.0107487
1737.0,0.816475,639.245,3153.54,3151.21,0.814912,0.0109351
1740.0,0.815096,639.41,3157.57,3155.24,0.813055,0.0090774
1743.0,0.812528,639.575,3161.6,3159.27,0.812899,0.00892077
1746.0,0.812367,639.74,3165.63,3163.29,0.812899,0.00892016
1749.0,0.815845,639.904,3169.66,3167.32,0.814275,0.0102955
1752.0,0.812211,640.069,3173.68,3171.34,0.811429,0.00744893
1755.0,0.810403,640.234,3177.71,3175.36,0.811247,0.00726636
1758.0,0.811247,640.399,3181.73,3179.38,0.811247,0.00726585
1761.0,0.809279,640.564,3185.75,3183.4,0.809566,0.00558441
1764.0,0.809444,640.729,3189.76,3187.41,0.809566,0.00558402
1767.0,0.809709,640.893,3193.78,3191.42,0.811657,0.00767467
1770.0,0.808002,641.058,3197.79,3195.43,0.810414,0.00643137
1773.0,0.811661,641.223,3201.8,3199.44,0.809038,0.0050551
1776.0,0.80885,641.388,3205.81,3203.45,0.80885,0.00486689
1779.0,0.807448,641.553,3209.81,3207.45,0.808546,0.00456272
1782.0,0.810225,641.718,3213.82,3211.45,0.809666,0.00568259
1785.0,0.808773,641.883,3217.82,3215.45,0.808773,0.0047895
1788.0,0.808893,642.047,3221.82,3219.45,0.808377,0.00439345
1791.0,0.807146,642.212,3225.82,3223.45,0.807146,0.00316243
1794.0,0.80721,642.377,3229.81,3227.44,0.807559,0.00357544
1797.0,0.806929,642.542,3233.81,3231.43,0.807712,0.00372848
1800.0,0.807341,642.707,3237.8,3235.42,0.807341,0.00335754
1803.0,0.808741,642.872,3241.79,3239.41,0.807585,0.00360163
1806.0,0.811295,643.036,3245.77,3243.4,0.807585,0.00360176
1809.0,0.817624,643.201,3249.76,3247.38,0.807574,0.00359094
1812.0,0.806447,643.366,3253.74,3251.36,0.806447,0.00246413
1815.0,0.807231,643.531,3257.72,3255.34,0.809878,0.00589535
1818.0,0.804212,643.696,3261.7,3259.32,0.807365,0.00338261
1821.0,0.80619,643.861,3265.68,3263.29,0.807031,0.00304888
1824.0,0.806897,644.025,3269.66,3267.27,0.806897,0.00291518
1827.0,0.805032,644.19,3273.63,3271.24,0.807204,0.0032225
1830.0,0.808975,644.355,3277.6,3275.21,0.807204,0.00322284
1833.0,0.805158,644.52,3281.57,3279.18,0.805158,0.0011772
1836.0,0.805483,644.685,3285.54,3283.14,0.805483,0.00150257
1839.0,0.806449,644.85,3289.5,3287.1,0.805513,0.00153296
1842.0,0.804463,645.015,3293.47,3291.07,0.805513,0.00153335
1845.0,0.80482,645.179,3297.43,3295.02,0.806019,0.00203976
1848.0,0.808531,645.344,3301.39,3298.98,0.80724,0.00326118
1851.0,0.805086,645.509,3305.34,3302.94,0.805086,0.00110763
1854.0,0.809173,645.674,3309.3,3306.89,0.804998,0.00102008
1857.0,0.802756,645.839,3313.25,3310.84,0.804218,0.000240554
1860.0,0.805517,646.004,3317.2,3314.79,0.805511,0.00153403
1863.0,0.805048,646.168,3321.15,3318.74,0.80597,0.00199351
1866.0,0.803988,646.333,3325.1,3322.68,0.804826,0.000850013
1869.0,0.803421,646.498,3329.04,3326.63,0.804826,0.00085052
1872.0,0.806147,646.663,3332.98,3330.57,0.805379,0.00140403
1875.0,0.806506,646.828,3336.93,3334.51,0.803479,-0.000495445
1878.0,0.8065,646.993,3340.86,3338.44,0.804006,3.20828e-05
1881.0,0.803933,647.157,3344.8,3342.38,0.804006,3.26207e-05
1884.0,0.801565,647.322,3348.74,3346.31,0.803951,-2.18365e-05
1887.0,0.806971,647.487,3352.67,3350.24,0.804128,0.000155705
1890.0,0.804136,647.652,3356.6,3354.17,0.804136,0.000164258
1893.0,0.80353,647.817,3360.53,3358.1,0.803693,-0.00027819
1896.0,0.807184,647.982,3364.46,3362.02,0.805237,0.00126636
1899.0,0.802878,648.146,3368.38,3365.95,0.804864,0.000893925
1902.0,0.802319,648.311,3372.3,3369.87,0.80334,-0.000629506
1905.0,0.803587,648.476,3376.22,3373.79,0.803578,-0.000390944
1908.0,0.803506,648.641,3380.14,3377.7,0.803506,-0.000462383
1911.0,0.80384,648.806,3384.06,3381.62,0.803713,-0.000254826
1914.0,0.801278,648.971,3387.98,3385.53,0.803713,-0.000254272
1917.0,0.803157,649.136,3391.89,3389.44,0.803668,-0.000298725
1920.0,0.803625,649.3,3395.8,3393.35,0.803625,-0.000341183
1923.0,0.801611,649.465,3399.71,3397.26,0.803102,-0.000863647
1926.0,0.801209,649.63,3403.62,3401.16,0.80287,-0.00109513
1929.0,0.804623,649.795,3407.52,3405.07,0.80287,-0.00109462
1932.0,0.808019,649.96,3411.42,3408.97,0.803507,-0.000457116
1935.0,0.803498,650.125,3415.32,3412.87,0.802949,-0.0010146
1938.0,0.806301,650.289,3419.22,3416.76,0.80148,-0.00248309
1941.0,0.802842,650.454,3423.12,3420.66,0.80177,-0.00219259
1944.0,0.807102,650.619,3427.02,3424.55,0.802864,-0.0010981
1947.0,0.8007,650.784,3430.91,3428.44,0.803161,-0.000800619
1950.0,0.802133,650.949,3434.8,3432.33,0.803245,-0.000716148
1953.0,0.803411,651.114,3438.69,3436.22,0.803411,-0.000549686
1956.0,0.801892,651.278,3442.58,3440.11,0.803374,-0.000586227
1959.0,0.80088,651.443,3446.46,3443.99,0.801929,-0.00203078
1962.0,0.800656,651.608,3450.34,3447.87,0.800934,-0.00302534
1965.0,0.802263,651.773,3454.23,3451.75,0.801866,-0.00209292
1968.0,0.808482,651.938,3458.11,3455.63,0.802983,-0.000975529
1971.0,0.801212,652.103,3461.98,3459.5,0.802965,-0.00099313
1974.0,0.801966,652.267,3465.86,3463.38,0.801966,-0.00199174
1977.0,0.801935,652.432,3469.73,3467.25,0.801935,-0.00202237
1980.0,0.803947,652.597,3473.6,3471.12,0.80177,-0.00218702
1983.0,0.802135,652.762,3477.47,3474.99,0.801216,-0.00274068
1986.0,0.802011,652.927,3481.34,3478.85,0.801545,-0.00241136
1989.0,0.802282,653.092,3485.21,3482.72,0.802282,-0.00167405
1992.0,0.802473,653.257,3489.07,3486.58,0.804505,0.00054924
1995.0,0.803937,653.421,3492.93,3490.44,0.804505,0.000549536
1998.0,0.801973,653.586,3496.79,3494.3,0.80229,-0.00166516
2001.0,0.802398,653.751,3500.65,3498.15,0.80229,-0.00166487
2004.0,0.802843,653.916,3504.51,3502.01,0.802843,-0.0011116
2007.0,0.800357,654.081,3508.36,3505.86,0.803251,-0.000703332
2010.0,0.801379,654.246,3512.21,3509.71,0.802502,-0.00145208
2013.0,0.803363,654.41,3516.06,3513.56,0.802921,-0.00103284
2016.0,0.801296,654.575,3519.91,3517.4,0.801312,-0.00264161
2019.0,0.803744,654.74,3523.76,3521.25,0.801312,-0.0026414
2022.0,0.8009,654.905,3527.6,3525.09,0.8009,-0.00305321
2025.0,0.801977,655.07,3531.44,3528.93,0.801977,-0.00197604
2028.0,0.80118,655.235,3535.28,3532.77,0.80118,-0.00277289
2031.0,0.801198,655.399,3539.12,3536.61,0.801009,-0.00294376
2034.0,0.802202,655.564,3542.96,3540.44,0.802202,-0.00175065
2037.0,0.799751,655.729,3546.79,3544.27,0.799751,-0.00420156
2040.0,0.802679,655.894,3550.63,3548.1,0.802041,-0.00191151
2043.0,0.804904,656.059,3554.46,3551.93,0.802041,-0.00191147
2046.0,0.801528,656.224,3558.28,3555.76,0.801528,-0.00242445
2047.0,0.802757,656.279,3559.56,3557.04,0.801528,-0.00242445