File: data/processed/processed_data/2024-10-11/2024-10-11_l-tyrosinepowder_n_n_n_solid_10000_0_5.csv
Pixels #,Intensity (a.u.),Wavelength (nm),Raman shift (cm-1),Raman shift (cm-1) adjusted,Filtered Intensity (a.u.),Baselined Filtered Intensity (a.u.)
0.0,0.792476,543.803,407.968,406.929,0.792476,-0.0400953
3.0,0.790984,543.967,413.541,412.499,0.792476,-0.0400955
6.0,0.792679,544.132,419.11,418.065,0.792679,-0.0398931
9.0,0.794431,544.297,424.676,423.628,0.793266,-0.039307
12.0,0.798124,544.462,430.238,429.188,0.792139,-0.0404352
15.0,0.794983,544.627,435.797,434.744,0.792629,-0.0399467
18.0,0.794625,544.792,441.353,440.297,0.792629,-0.0399486
21.0,0.79443,544.957,446.905,445.847,0.791527,-0.0410528
24.0,0.791379,545.121,452.454,451.393,0.791837,-0.0407453
27.0,0.792896,545.286,457.999,456.936,0.792339,-0.0402462
30.0,0.792954,545.451,463.542,462.476,0.793786,-0.0388024
33.0,0.79487,545.616,469.08,468.012,0.796238,-0.0363539
36.0,0.794507,545.781,474.616,473.545,0.795581,-0.0370147
39.0,0.827086,545.946,480.148,479.075,0.799543,-0.0330568
42.0,0.801296,546.11,485.677,484.601,0.803026,-0.0295781
45.0,0.816458,546.275,491.202,490.124,0.816458,-0.0161507
48.0,0.843705,546.44,496.725,495.643,0.843705,0.0110916
51.0,0.878635,546.605,502.243,501.16,0.878635,0.046017
54.0,0.933348,546.77,507.759,506.672,0.933348,0.100726
57.0,0.956371,546.935,513.271,512.182,0.956371,0.123745
60.0,0.983287,547.099,518.78,517.688,0.983287,0.150659
63.0,1.00071,547.264,524.285,523.191,1.00071,0.168081
66.0,1.01596,547.429,529.788,528.691,1.01596,0.183331
69.0,1.03141,547.594,535.287,534.187,1.03141,0.198781
72.0,1.04256,547.759,540.782,539.68,1.04371,0.211081
75.0,1.04906,547.924,546.275,545.17,1.04906,0.216431
78.0,1.05732,548.088,551.763,550.656,1.05732,0.224691
81.0,1.05976,548.253,557.249,556.139,1.05897,0.226341
84.0,1.0601,548.418,562.732,561.619,1.06126,0.228631
87.0,1.06304,548.583,568.211,567.096,1.06358,0.230951
90.0,1.06869,548.748,573.686,572.569,1.06869,0.236061
93.0,1.06891,548.913,579.159,578.039,1.07264,0.240011
96.0,1.07759,549.078,584.628,583.506,1.07687,0.244241
99.0,1.07984,549.242,590.094,588.969,1.07918,0.246551
102.0,1.08295,549.407,595.557,594.429,1.08062,0.247991
105.0,1.08431,549.572,601.016,599.886,1.08431,0.251681
108.0,1.08496,549.737,606.472,605.339,1.08266,0.250031
111.0,1.0811,549.902,611.925,610.79,1.08173,0.249101
114.0,1.08133,550.067,617.375,616.237,1.08213,0.249501
117.0,1.08148,550.231,622.821,621.68,1.08149,0.248861
120.0,1.08099,550.396,628.264,627.121,1.0829,0.250271
123.0,1.08191,550.561,633.704,632.558,1.08296,0.250331
126.0,1.08466,550.726,639.14,637.992,1.08487,0.252241
129.0,1.08475,550.891,644.574,643.423,1.08568,0.253051
132.0,1.0893,551.056,650.004,648.85,1.08611,0.253481
135.0,1.08474,551.22,655.431,654.274,1.08611,0.253481
138.0,1.08736,551.385,660.854,659.695,1.08822,0.255591
141.0,1.09235,551.55,666.274,665.113,1.09235,0.259721
144.0,1.09875,551.715,671.691,670.528,1.09875,0.266121
147.0,1.10121,551.88,677.105,675.939,1.10325,0.270621
150.0,1.11221,552.045,682.516,681.347,1.11221,0.279581
153.0,1.11686,552.209,687.923,686.752,1.11686,0.284231
156.0,1.12471,552.374,693.327,692.153,1.12534,0.292711
159.0,1.1412,552.539,698.728,697.552,1.13829,0.305661
162.0,1.14393,552.704,704.126,702.947,1.14393,0.311301
165.0,1.15421,552.869,709.52,708.339,1.15421,0.321581
168.0,1.16533,553.034,714.912,713.727,1.16533,0.332701
171.0,1.17712,553.199,720.3,719.113,1.17712,0.344491
174.0,1.19146,553.363,725.684,724.495,1.19146,0.358831
177.0,1.20141,553.528,731.066,729.874,1.20247,0.369841
180.0,1.22139,553.693,736.444,735.25,1.22139,0.388761
183.0,1.2396,553.858,741.82,740.623,1.2396,0.406971
186.0,1.2585,554.023,747.192,745.992,1.2585,0.425871
189.0,1.27577,554.188,752.561,751.359,1.27577,0.443141
192.0,1.30109,554.352,757.926,756.722,1.30109,0.468461
195.0,1.32475,554.517,763.289,762.082,1.32475,0.492121
198.0,1.35056,554.682,768.648,767.438,1.35056,0.517931
201.0,1.37631,554.847,774.004,772.792,1.37631,0.543681
204.0,1.41094,555.012,779.357,778.142,1.41094,0.578311
207.0,1.44777,555.177,784.706,783.489,1.44777,0.615141
210.0,1.48804,555.341,790.053,788.833,1.48804,0.655411
213.0,1.53528,555.506,795.396,794.174,1.53528,0.702651
216.0,1.58144,555.671,800.737,799.512,1.58144,0.748811
219.0,1.62338,555.836,806.074,804.846,1.62338,0.790751
222.0,1.67741,556.001,811.407,810.178,1.67741,0.844781
225.0,1.74616,556.166,816.738,815.506,1.74616,0.913531
228.0,1.82552,556.33,822.066,820.831,1.82552,0.992891
231.0,1.89432,556.495,827.39,826.153,1.89432,1.06169
234.0,1.94652,556.66,832.711,831.472,1.94652,1.11389
237.0,1.98971,556.825,838.029,836.787,1.98971,1.15708
240.0,2.03249,556.99,843.344,842.1,2.03249,1.19986
243.0,2.08114,557.155,848.656,847.409,2.08114,1.24851
246.0,2.12569,557.32,853.965,852.715,2.12569,1.29306
249.0,2.17451,557.484,859.27,858.018,2.17353,1.3409
252.0,2.19379,557.649,864.572,863.318,2.19379,1.36116
255.0,2.2312,557.814,869.872,868.615,2.2312,1.39857
258.0,2.26113,557.979,875.168,873.908,2.26113,1.4285
261.0,2.29079,558.144,880.461,879.199,2.29079,1.45816
264.0,2.31857,558.309,885.751,884.486,2.31857,1.48594
267.0,2.33766,558.473,891.037,889.77,2.33766,1.50503
270.0,2.35659,558.638,896.321,895.051,2.35659,1.52396
273.0,2.37379,558.803,901.601,900.329,2.37334,1.54071
276.0,2.37454,558.968,906.879,905.604,2.37852,1.54589
279.0,2.38673,559.133,912.153,910.876,2.38673,1.5541
282.0,2.39639,559.298,917.424,916.145,2.39726,1.56463
285.0,2.40177,559.462,922.692,921.41,2.40177,1.56914
288.0,2.40811,559.627,927.957,926.673,2.40811,1.57548
291.0,2.41349,559.792,933.219,931.932,2.41993,1.5873
294.0,2.41823,559.957,938.478,937.188,2.42108,1.58845
297.0,2.42338,560.122,943.733,942.441,2.42447,1.59184
300.0,2.42516,560.287,948.986,947.691,2.42945,1.59682
303.0,2.4287,560.452,954.235,952.938,2.43071,1.59808
306.0,2.43515,560.616,959.482,958.182,2.43515,1.60252
309.0,2.43894,560.781,964.725,963.423,2.43894,1.60631
312.0,2.44574,560.946,969.965,968.661,2.4557,1.62307
315.0,2.46016,561.111,975.202,973.896,2.46016,1.62753
318.0,2.47577,561.276,980.436,979.127,2.47577,1.64314
321.0,2.47816,561.441,985.667,984.356,2.47929,1.64666
324.0,2.48086,561.605,990.895,989.581,2.48679,1.65416
327.0,2.48738,561.77,996.12,994.803,2.48738,1.65475
330.0,2.49092,561.935,1001.34,1000.02,2.49092,1.65829
333.0,2.49944,562.1,1006.56,1005.24,2.49921,1.66658
336.0,2.5084,562.265,1011.78,1010.45,2.51069,1.67806
339.0,2.52553,562.43,1016.99,1015.66,2.52237,1.68974
342.0,2.52933,562.594,1022.2,1020.87,2.5299,1.69727
345.0,2.54231,562.759,1027.4,1026.07,2.54231,1.70968
348.0,2.55624,562.924,1032.61,1031.27,2.55624,1.72361
351.0,2.57097,563.089,1037.81,1036.47,2.57097,1.73834
354.0,2.58121,563.254,1043.01,1041.67,2.58121,1.74858
357.0,2.58928,563.419,1048.2,1046.86,2.58643,1.7538
360.0,2.5958,563.583,1053.39,1052.05,2.59157,1.75894
363.0,2.5989,563.748,1058.58,1057.23,2.59661,1.76398
366.0,2.60485,563.913,1063.77,1062.42,2.60485,1.77222
369.0,2.61097,564.078,1068.95,1067.6,2.61097,1.77834
372.0,2.61319,564.243,1074.13,1072.77,2.61639,1.78376
375.0,2.61996,564.408,1079.3,1077.95,2.61996,1.78733
378.0,2.63253,564.573,1084.48,1083.12,2.6282,1.79557
381.0,2.63374,564.737,1089.65,1088.28,2.63374,1.80111
384.0,2.63858,564.902,1094.81,1093.45,2.63641,1.80378
387.0,2.64263,565.067,1099.98,1098.61,2.64263,1.81
390.0,2.65173,565.232,1105.14,1103.77,2.64672,1.81409
393.0,2.65245,565.397,1110.3,1108.93,2.65239,1.81976
396.0,2.6528,565.562,1115.45,1114.08,2.65373,1.8211
399.0,2.66471,565.726,1120.6,1119.23,2.66363,1.831
402.0,2.66504,565.891,1125.75,1124.37,2.66496,1.83233
405.0,2.68236,566.056,1130.9,1129.52,2.66858,1.83595
408.0,2.67848,566.221,1136.04,1134.66,2.67749,1.84486
411.0,2.68469,566.386,1141.18,1139.8,2.68469,1.85206
414.0,2.69203,566.551,1146.32,1144.93,2.68976,1.85713
417.0,2.70293,566.715,1151.45,1150.06,2.70293,1.8703
420.0,2.7163,566.88,1156.58,1155.19,2.7163,1.88367
423.0,2.72106,567.045,1161.71,1160.32,2.72102,1.88839
426.0,2.73372,567.21,1166.84,1165.44,2.73372,1.90109
429.0,2.7506,567.375,1171.96,1170.56,2.7506,1.91797
432.0,2.76055,567.54,1177.08,1175.68,2.76055,1.92792
435.0,2.76493,567.704,1182.19,1180.79,2.76805,1.93542
438.0,2.75991,567.869,1187.31,1185.9,2.76805,1.93542
441.0,2.77727,568.034,1192.42,1191.01,2.77727,1.94464
444.0,2.79131,568.199,1197.52,1196.11,2.79131,1.95868
447.0,2.80877,568.364,1202.63,1201.21,2.8046,1.97197
450.0,2.80954,568.529,1207.73,1206.31,2.80493,1.9723
453.0,2.81597,568.694,1212.83,1211.41,2.80802,1.97539
456.0,2.81007,568.858,1217.92,1216.5,2.81041,1.97778
459.0,2.8096,569.023,1223.02,1221.59,2.8096,1.97697
462.0,2.81464,569.188,1228.11,1226.68,2.81341,1.98078
465.0,2.81756,569.353,1233.19,1231.76,2.81887,1.98624
468.0,2.82854,569.518,1238.28,1236.85,2.82854,1.99591
471.0,2.83984,569.683,1243.36,1241.92,2.83984,2.00721
474.0,2.84682,569.847,1248.43,1247,2.84682,2.01419
477.0,2.84832,570.012,1253.51,1252.07,2.85403,2.0214
480.0,2.86659,570.177,1258.58,1257.14,2.86194,2.02931
483.0,2.86999,570.342,1263.65,1262.21,2.86619,2.03356
486.0,2.87188,570.507,1268.72,1267.27,2.86969,2.03706
489.0,2.86794,570.672,1273.78,1272.33,2.86969,2.03706
492.0,2.87122,570.836,1278.84,1277.39,2.87151,2.03888
495.0,2.87443,571.001,1283.9,1282.44,2.87866,2.04603
498.0,2.87749,571.166,1288.95,1287.5,2.87749,2.04486
501.0,2.87927,571.331,1294,1292.55,2.87927,2.04664
504.0,2.88457,571.496,1299.05,1297.59,2.88457,2.05194
507.0,2.88847,571.661,1304.1,1302.63,2.88847,2.05584
510.0,2.90216,571.825,1309.14,1307.67,2.90216,2.06953
513.0,2.91692,571.99,1314.18,1312.71,2.91692,2.08429
516.0,2.93321,572.155,1319.22,1317.75,2.93629,2.10366
519.0,2.95786,572.32,1324.25,1322.78,2.95725,2.12462
522.0,2.95927,572.485,1329.28,1327.81,2.95772,2.12509
525.0,2.95467,572.65,1334.31,1332.83,2.95467,2.12204
528.0,2.94458,572.815,1339.33,1337.86,2.9496,2.11697
531.0,2.94232,572.979,1344.36,1342.88,2.94437,2.11174
534.0,2.94851,573.144,1349.38,1347.89,2.95614,2.12351
537.0,2.95995,573.309,1354.39,1352.91,2.95995,2.12732
540.0,2.97791,573.474,1359.41,1357.92,2.97791,2.14528
543.0,2.98089,573.639,1364.42,1362.93,2.98213,2.1495
546.0,2.98736,573.804,1369.43,1367.93,2.98899,2.15636
549.0,2.98473,573.968,1374.43,1372.94,2.98894,2.15631
552.0,2.99006,574.133,1379.43,1377.94,2.99006,2.15743
555.0,2.99299,574.298,1384.43,1382.93,2.99298,2.16035
558.0,2.99365,574.463,1389.43,1387.93,3.00021,2.16758
561.0,3.00209,574.628,1394.42,1392.92,3.0047,2.17207
564.0,3.00396,574.793,1399.41,1397.91,3.00768,2.17505
567.0,3.01771,574.957,1404.4,1402.89,3.01642,2.18379
570.0,3.01659,575.122,1409.39,1407.87,3.01661,2.18398
573.0,3.04201,575.287,1414.37,1412.85,3.03328,2.20065
576.0,3.0335,575.452,1419.35,1417.83,3.03475,2.20212
579.0,3.04739,575.617,1424.32,1422.81,3.04654,2.21391
582.0,3.05541,575.782,1429.3,1427.78,3.05407,2.22144
585.0,3.07114,575.946,1434.27,1432.74,3.06046,2.22783
588.0,3.06577,576.111,1439.24,1437.71,3.06415,2.23152
591.0,3.05837,576.276,1444.2,1442.67,3.06596,2.23333
594.0,3.06242,576.441,1449.16,1447.63,3.06596,2.23333
597.0,3.0701,576.606,1454.12,1452.59,3.06859,2.23596
600.0,3.08189,576.771,1459.08,1457.54,3.07273,2.2401
603.0,3.08381,576.936,1464.03,1462.5,3.08145,2.24882
606.0,3.10052,577.1,1468.98,1467.44,3.09073,2.2581
609.0,3.09262,577.265,1473.93,1472.39,3.09262,2.25999
612.0,3.10089,577.43,1478.88,1477.33,3.10052,2.26789
615.0,3.10776,577.595,1483.82,1482.27,3.10478,2.27215
618.0,3.11278,577.76,1488.76,1487.21,3.11278,2.28015
621.0,3.11854,577.925,1493.7,1492.14,3.11812,2.28549
624.0,3.12554,578.089,1498.63,1497.08,3.12352,2.29089
627.0,3.12993,578.254,1503.56,1502.01,3.12993,2.2973
630.0,3.1659,578.419,1508.49,1506.93,3.14614,2.31351
633.0,3.14727,578.584,1513.41,1511.85,3.14614,2.31351
636.0,3.15472,578.749,1518.34,1516.77,3.15472,2.32209
639.0,3.1576,578.914,1523.26,1521.69,3.1576,2.32497
642.0,3.16653,579.078,1528.17,1526.61,3.16616,2.33353
645.0,3.16312,579.243,1533.09,1531.52,3.16616,2.33353
648.0,3.17672,579.408,1538,1536.43,3.17672,2.34409
651.0,3.17878,579.573,1542.91,1541.33,3.17877,2.34614
654.0,3.18306,579.738,1547.82,1546.24,3.18306,2.35043
657.0,3.1901,579.903,1552.72,1551.14,3.19106,2.35843
660.0,3.18919,580.067,1557.62,1556.04,3.19106,2.35843
663.0,3.19433,580.232,1562.52,1560.93,3.1952,2.36257
666.0,3.20543,580.397,1567.41,1565.83,3.20022,2.36759
669.0,3.2087,580.562,1572.3,1570.72,3.20713,2.3745
672.0,3.28501,580.727,1577.19,1575.6,3.21413,2.3815
675.0,3.22094,580.892,1582.08,1580.49,3.22021,2.38758
678.0,3.22238,581.057,1586.96,1585.37,3.22238,2.38975
681.0,3.2303,581.221,1591.84,1590.25,3.23347,2.40084
684.0,3.23864,581.386,1596.72,1595.12,3.24148,2.40885
687.0,3.25548,581.551,1601.6,1600,3.25419,2.42156
690.0,3.25917,581.716,1606.47,1604.87,3.26304,2.43041
693.0,3.2716,581.881,1611.34,1609.73,3.2716,2.43897
696.0,3.27412,582.046,1616.21,1614.6,3.27391,2.44128
699.0,3.26706,582.21,1621.07,1619.46,3.27148,2.43885
702.0,3.26426,582.375,1625.93,1624.32,3.26244,2.42981
705.0,3.25748,582.54,1630.79,1629.18,3.25548,2.42285
708.0,3.25824,582.705,1635.65,1634.03,3.25675,2.42412
711.0,3.25772,582.87,1640.5,1638.88,3.25747,2.42484
714.0,3.26026,583.035,1645.35,1643.73,3.26318,2.43055
717.0,3.26326,583.199,1650.2,1648.57,3.26326,2.43063
720.0,3.26778,583.364,1655.04,1653.42,3.26253,2.4299
723.0,3.27083,583.529,1659.89,1658.26,3.26253,2.4299
726.0,3.27497,583.694,1664.73,1663.1,3.27616,2.44353
729.0,3.2777,583.859,1669.56,1667.93,3.27774,2.44511
732.0,3.28601,584.024,1674.4,1672.76,3.28089,2.44826
735.0,3.29184,584.188,1679.23,1677.59,3.29184,2.45921
738.0,3.28798,584.353,1684.06,1682.42,3.29098,2.45835
741.0,3.29607,584.518,1688.88,1687.24,3.29423,2.4616
744.0,3.29585,584.683,1693.71,1692.06,3.3043,2.47167
747.0,3.30968,584.848,1698.53,1696.88,3.30832,2.47569
750.0,3.31295,585.013,1703.35,1701.7,3.31065,2.47802
753.0,3.31667,585.178,1708.16,1706.51,3.31667,2.48404
756.0,3.32094,585.342,1712.97,1711.32,3.32094,2.48831
759.0,3.31891,585.507,1717.78,1716.13,3.3232,2.49057
762.0,3.32993,585.672,1722.59,1720.93,3.32664,2.49401
765.0,3.33234,585.837,1727.39,1725.73,3.33234,2.49971
768.0,3.33942,586.002,1732.2,1730.53,3.34152,2.50889
771.0,3.3493,586.167,1737,1735.33,3.3442,2.51157
774.0,3.3449,586.331,1741.79,1740.12,3.3449,2.51227
777.0,3.35342,586.496,1746.58,1744.91,3.3482,2.51557
780.0,3.35274,586.661,1751.38,1749.7,3.35274,2.52011
783.0,3.41087,586.826,1756.16,1754.49,3.35866,2.52603
786.0,3.36367,586.991,1760.95,1759.27,3.35946,2.52683
789.0,3.36789,587.156,1765.73,1764.05,3.36789,2.53526
792.0,3.36535,587.32,1770.51,1768.83,3.36687,2.53424
795.0,3.37824,587.485,1775.29,1773.61,3.3721,2.53947
798.0,3.37905,587.65,1780.06,1778.38,3.37905,2.54642
801.0,3.37961,587.815,1784.84,1783.15,3.37961,2.54698
804.0,3.37392,587.98,1789.61,1787.91,3.3797,2.54707
807.0,3.38066,588.145,1794.37,1792.68,3.3797,2.54707
810.0,3.38903,588.309,1799.14,1797.44,3.38903,2.5564
813.0,3.38736,588.474,1803.9,1802.2,3.3892,2.55657
816.0,3.38986,588.639,1808.66,1806.96,3.38986,2.55723
819.0,3.3968,588.804,1813.41,1811.71,3.3981,2.56547
822.0,3.39546,588.969,1818.17,1816.46,3.40279,2.57016
825.0,3.40773,589.134,1822.92,1821.21,3.40773,2.5751
828.0,3.41407,589.299,1827.66,1825.96,3.41118,2.57855
831.0,3.42124,589.463,1832.41,1830.7,3.41734,2.58471
834.0,3.41646,589.628,1837.15,1835.44,3.41837,2.58574
837.0,3.42237,589.793,1841.89,1840.18,3.4214,2.58877
840.0,3.4254,589.958,1846.63,1844.91,3.4254,2.59277
843.0,3.43074,590.123,1851.36,1849.65,3.43527,2.60264
846.0,3.44217,590.288,1856.1,1854.37,3.44217,2.60954
849.0,3.43097,590.452,1860.83,1859.1,3.44203,2.6094
852.0,3.44195,590.617,1865.55,1863.83,3.44379,2.61116
855.0,3.45099,590.782,1870.28,1868.55,3.44829,2.61566
858.0,3.45314,590.947,1875,1873.27,3.44991,2.61728
861.0,3.45391,591.112,1879.72,1877.98,3.45391,2.62128
864.0,3.46084,591.277,1884.43,1882.7,3.46533,2.6327
867.0,3.47968,591.441,1889.15,1887.41,3.46533,2.6327
870.0,3.46665,591.606,1893.86,1892.12,3.46369,2.63106
873.0,3.47082,591.771,1898.57,1896.83,3.46369,2.63106
876.0,3.46689,591.936,1903.27,1901.53,3.46516,2.63253
879.0,3.47093,592.101,1907.98,1906.23,3.46945,2.63682
882.0,3.47756,592.266,1912.68,1910.93,3.47383,2.6412
885.0,3.47149,592.43,1917.38,1915.62,3.47346,2.64083
888.0,3.47671,592.595,1922.07,1920.32,3.47574,2.64311
891.0,3.47499,592.76,1926.76,1925.01,3.47574,2.64311
894.0,3.47394,592.925,1931.45,1929.7,3.47671,2.64408
897.0,3.47377,593.09,1936.14,1934.38,3.47671,2.64408
900.0,3.4827,593.255,1940.83,1939.06,3.47845,2.64582
903.0,3.47893,593.42,1945.51,1943.74,3.48351,2.65088
906.0,3.48595,593.584,1950.19,1948.42,3.48595,2.65332
909.0,3.48483,593.749,1954.86,1953.1,3.48554,2.65291
912.0,3.48975,593.914,1959.54,1957.77,3.48644,2.65381
915.0,3.48957,594.079,1964.21,1962.44,3.48454,2.65191
918.0,3.48598,594.244,1968.88,1967.11,3.48565,2.65302
921.0,3.48985,594.409,1973.55,1971.77,3.48774,2.65511
924.0,3.48733,594.573,1978.21,1976.43,3.48765,2.65502
927.0,3.48773,594.738,1982.87,1981.09,3.4877,2.65507
930.0,3.48473,594.903,1987.53,1985.75,3.4896,2.65697
933.0,3.48798,595.068,1992.19,1990.4,3.49298,2.66035
936.0,3.49083,595.233,1996.84,1995.05,3.49083,2.6582
939.0,3.48964,595.398,2001.49,1999.7,3.49176,2.65913
942.0,3.49303,595.562,2006.14,2004.35,3.49303,2.6604
945.0,3.48501,595.727,2010.79,2008.99,3.48821,2.65558
948.0,3.49198,595.892,2015.43,2013.63,3.48821,2.65558
951.0,3.4915,596.057,2020.07,2018.27,3.49033,2.6577
954.0,3.49174,596.222,2024.71,2022.91,3.49033,2.6577
957.0,3.4813,596.387,2029.35,2027.54,3.48508,2.65245
960.0,3.48628,596.551,2033.98,2032.17,3.48876,2.65613
963.0,3.4884,596.716,2038.61,2036.8,3.49064,2.65801
966.0,3.48603,596.881,2043.24,2041.43,3.48767,2.65504
969.0,3.4928,597.046,2047.86,2046.05,3.48767,2.65504
972.0,3.48934,597.211,2052.49,2050.67,3.48934,2.65671
975.0,3.49227,597.376,2057.11,2055.29,3.48601,2.65338
978.0,3.48538,597.541,2061.73,2059.91,3.48496,2.65233
981.0,3.47971,597.705,2066.34,2064.52,3.48265,2.65002
984.0,3.47819,597.87,2070.95,2069.13,3.48265,2.65002
987.0,3.48212,598.035,2075.56,2073.74,3.48324,2.65061
990.0,3.47609,598.2,2080.17,2078.34,3.47982,2.64719
993.0,3.47661,598.365,2084.78,2082.95,3.47661,2.64398
996.0,3.48654,598.53,2089.38,2087.55,3.47717,2.64454
999.0,3.47438,598.694,2093.98,2092.15,3.4741,2.64147
1002.0,3.47019,598.859,2098.58,2096.74,3.4726,2.63997
1005.0,3.47082,599.024,2103.17,2101.33,3.47082,2.63819
1008.0,3.47413,599.189,2107.77,2105.93,3.46969,2.63706
1011.0,3.46379,599.354,2112.36,2110.51,3.46966,2.63703
1014.0,3.46732,599.519,2116.94,2115.1,3.46732,2.63469
1017.0,3.46517,599.683,2121.53,2119.68,3.46765,2.63502
1020.0,3.47094,599.848,2126.11,2124.26,3.47052,2.63789
1023.0,3.4624,600.013,2130.69,2128.84,3.46632,2.63369
1026.0,3.4606,600.178,2135.27,2133.41,3.46828,2.63565
1029.0,3.47152,600.343,2139.84,2137.99,3.46976,2.63713
1032.0,3.4619,600.508,2144.42,2142.56,3.46593,2.6333
1035.0,3.46369,600.672,2148.99,2147.13,3.46344,2.63081
1038.0,3.46347,600.837,2153.55,2151.69,3.46347,2.63084
1041.0,3.46172,601.002,2158.12,2156.25,3.46468,2.63205
1044.0,3.47167,601.167,2162.68,2160.81,3.45929,2.62666
1047.0,3.4585,601.332,2167.24,2165.37,3.45672,2.62409
1050.0,3.4558,601.497,2171.8,2169.93,3.45773,2.6251
1053.0,3.45493,601.662,2176.35,2174.48,3.45773,2.6251
1056.0,3.4539,601.826,2180.9,2179.03,3.4539,2.62127
1059.0,3.45702,601.991,2185.45,2183.58,3.45373,2.6211
1062.0,3.45816,602.156,2190,2188.12,3.45373,2.6211
1065.0,3.44819,602.321,2194.55,2192.67,3.44819,2.61556
1068.0,3.44597,602.486,2199.09,2197.21,3.44657,2.61394
1071.0,3.44854,602.651,2203.63,2201.74,3.45061,2.61798
1074.0,3.45689,602.815,2208.17,2206.28,3.45448,2.62185
1077.0,3.44738,602.98,2212.7,2210.81,3.45037,2.61774
1080.0,3.44872,603.145,2217.23,2215.34,3.45014,2.61751
1083.0,3.45621,603.31,2221.76,2219.87,3.45659,2.62396
1086.0,3.45444,603.475,2226.29,2224.4,3.45758,2.62495
1089.0,3.45317,603.64,2230.82,2228.92,3.45317,2.62054
1092.0,3.45541,603.804,2235.34,2233.44,3.45411,2.62148
1095.0,3.458,603.969,2239.86,2237.96,3.45411,2.62148
1098.0,3.45522,604.134,2244.38,2242.47,3.44918,2.61655
1101.0,3.46216,604.299,2248.89,2246.99,3.45203,2.6194
1104.0,3.4523,604.464,2253.41,2251.5,3.45377,2.62114
1107.0,3.44947,604.629,2257.92,2256,3.45237,2.61974
1110.0,3.44354,604.794,2262.42,2260.51,3.45237,2.61974
1113.0,3.45539,604.958,2266.93,2265.01,3.45368,2.62105
1116.0,3.44797,605.123,2271.43,2269.51,3.44943,2.6168
1119.0,3.45276,605.288,2275.93,2274.01,3.45276,2.62013
1122.0,3.44793,605.453,2280.43,2278.51,3.44464,2.61201
1125.0,3.44508,605.618,2284.93,2283,3.44388,2.61125
1128.0,3.44767,605.783,2289.42,2287.49,3.44388,2.61125
1131.0,3.44051,605.947,2293.91,2291.98,3.44051,2.60788
1134.0,3.44387,606.112,2298.4,2296.47,3.44125,2.60862
1137.0,3.4392,606.277,2302.88,2300.95,3.44125,2.60862
1140.0,3.43652,606.442,2307.37,2305.43,3.44109,2.60846
1143.0,3.43929,606.607,2311.85,2309.91,3.43938,2.60675
1146.0,3.44232,606.772,2316.33,2314.39,3.44232,2.60969
1149.0,3.4384,606.936,2320.8,2318.86,3.4384,2.60577
1152.0,3.43833,607.101,2325.28,2323.33,3.43806,2.60543
1155.0,3.44609,607.266,2329.75,2327.8,3.43806,2.60543
1158.0,3.43398,607.431,2334.22,2332.27,3.43773,2.6051
1161.0,3.43989,607.596,2338.68,2336.73,3.43825,2.60562
1164.0,3.43491,607.761,2343.15,2341.19,3.43491,2.60228
1167.0,3.43578,607.925,2347.61,2345.65,3.43121,2.59858
1170.0,3.43143,608.09,2352.07,2350.11,3.43121,2.59858
1173.0,3.43485,608.255,2356.52,2354.57,3.43057,2.59794
1176.0,3.42701,608.42,2360.98,2359.02,3.42701,2.59438
1179.0,3.4288,608.585,2365.43,2363.47,3.4288,2.59617
1182.0,3.42283,608.75,2369.88,2367.91,3.42856,2.59593
1185.0,3.42196,608.915,2374.33,2372.36,3.42955,2.59692
1188.0,3.42131,609.079,2378.77,2376.8,3.42169,2.58906
1191.0,3.42551,609.244,2383.21,2381.24,3.42189,2.58926
1194.0,3.42239,609.409,2387.65,2385.68,3.42239,2.58976
1197.0,3.41411,609.574,2392.09,2390.12,3.42241,2.58978
1200.0,3.41954,609.739,2396.52,2394.55,3.41954,2.58691
1203.0,3.41505,609.904,2400.96,2398.98,3.41223,2.5796
1206.0,3.41366,610.068,2405.39,2403.41,3.41185,2.57922
1209.0,3.41102,610.233,2409.82,2407.83,3.40966,2.57703
1212.0,3.41019,610.398,2414.24,2412.26,3.40966,2.57703
1215.0,3.40821,610.563,2418.66,2416.68,3.40821,2.57558
1218.0,3.39598,610.728,2423.08,2421.1,3.40354,2.57091
1221.0,3.41056,610.893,2427.5,2425.51,3.40384,2.57121
1224.0,3.40129,611.057,2431.92,2429.93,3.40129,2.56866
1227.0,3.39663,611.222,2436.33,2434.34,3.39663,2.564
1230.0,3.39159,611.387,2440.74,2438.75,3.39389,2.56126
1233.0,3.39193,611.552,2445.15,2443.15,3.39193,2.5593
1236.0,3.38369,611.717,2449.56,2447.56,3.39074,2.55811
1239.0,3.38249,611.882,2453.96,2451.96,3.38549,2.55286
1242.0,3.38393,612.046,2458.36,2456.36,3.38449,2.55186
1245.0,3.38432,612.211,2462.76,2460.75,3.38484,2.55221
1248.0,3.38329,612.376,2467.16,2465.15,3.38547,2.55284
1251.0,3.37844,612.541,2471.55,2469.54,3.37955,2.54692
1254.0,3.37896,612.706,2475.95,2473.93,3.37896,2.54633
1257.0,3.37612,612.871,2480.34,2478.32,3.37612,2.54349
1260.0,3.37199,613.036,2484.72,2482.71,3.37199,2.53936
1263.0,3.36315,613.2,2489.11,2487.09,3.36813,2.5355
1266.0,3.36244,613.365,2493.49,2491.47,3.36436,2.53173
1269.0,3.36172,613.53,2497.87,2495.85,3.36172,2.52909
1272.0,3.35395,613.695,2502.25,2500.22,3.3531,2.52047
1275.0,3.35546,613.86,2506.63,2504.6,3.35104,2.51841
1278.0,3.34755,614.025,2511,2508.97,3.34755,2.51492
1281.0,3.34484,614.189,2515.37,2513.34,3.34484,2.51221
1284.0,3.33909,614.354,2519.74,2517.7,3.3414,2.50877
1287.0,3.35223,614.519,2524.1,2522.07,3.33744,2.50481
1290.0,3.33262,614.684,2528.47,2526.43,3.33262,2.49999
1293.0,3.3332,614.849,2532.83,2530.79,3.32918,2.49655
1296.0,3.33053,615.014,2537.19,2535.15,3.32189,2.48926
1299.0,3.31934,615.178,2541.55,2539.5,3.31833,2.4857
1302.0,3.31365,615.343,2545.9,2543.85,3.31322,2.48059
1305.0,3.31066,615.508,2550.25,2548.2,3.31169,2.47906
1308.0,3.30444,615.673,2554.6,2552.55,3.30444,2.47181
1311.0,3.30114,615.838,2558.95,2556.9,3.30305,2.47042
1314.0,3.29693,616.003,2563.3,2561.24,3.29693,2.4643
1317.0,3.29166,616.167,2567.64,2565.58,3.29107,2.45844
1320.0,3.29087,616.332,2571.98,2569.92,3.28728,2.45465
1323.0,3.29937,616.497,2576.32,2574.26,3.28385,2.45122
1326.0,3.27772,616.662,2580.65,2578.59,3.27962,2.44699
1329.0,3.27802,616.827,2584.99,2582.92,3.27553,2.4429
1332.0,3.26752,616.992,2589.32,2587.25,3.26752,2.43489
1335.0,3.26924,617.157,2593.65,2591.58,3.26447,2.43184
1338.0,3.26042,617.321,2597.97,2595.9,3.26042,2.42779
1341.0,3.25554,617.486,2602.3,2600.22,3.25878,2.42615
1344.0,3.25511,617.651,2606.62,2604.54,3.25511,2.42248
1347.0,3.24647,617.816,2610.94,2608.86,3.248,2.41537
1350.0,3.25349,617.981,2615.26,2613.18,3.248,2.41537
1353.0,3.24199,618.146,2619.57,2617.49,3.24527,2.41264
1356.0,3.2395,618.31,2623.89,2621.8,3.2395,2.40687
1359.0,3.22824,618.475,2628.2,2626.11,3.23209,2.39946
1362.0,3.22981,618.64,2632.5,2630.42,3.22842,2.39579
1365.0,3.22175,618.805,2636.81,2634.72,3.2229,2.39027
1368.0,3.21786,618.97,2641.11,2639.02,3.21946,2.38683
1371.0,3.22,619.135,2645.42,2643.32,3.21891,2.38628
1374.0,3.20951,619.299,2649.71,2647.62,3.21354,2.38091
1377.0,3.21218,619.464,2654.01,2651.91,3.21274,2.38011
1380.0,3.20755,619.629,2658.31,2656.21,3.20755,2.37492
1383.0,3.20171,619.794,2662.6,2660.5,3.20171,2.36908
1386.0,3.19361,619.959,2666.89,2664.78,3.20073,2.3681
1389.0,3.19812,620.124,2671.18,2669.07,3.19812,2.36549
1392.0,3.20754,620.288,2675.46,2673.35,3.19232,2.35969
1395.0,3.18844,620.453,2679.74,2677.63,3.18844,2.35581
1398.0,3.1822,620.618,2684.03,2681.91,3.18628,2.35365
1401.0,3.1802,620.783,2688.3,2686.19,3.1802,2.34757
1404.0,3.17671,620.948,2692.58,2690.46,3.17936,2.34673
1407.0,3.17891,621.113,2696.85,2694.74,3.17903,2.3464
1410.0,3.17588,621.278,2701.13,2699.01,3.17635,2.34372
1413.0,3.16835,621.442,2705.4,2703.27,3.17252,2.33989
1416.0,3.16656,621.607,2709.66,2707.54,3.1691,2.33647
1419.0,3.17157,621.772,2713.93,2711.8,3.16708,2.33445
1422.0,3.17057,621.937,2718.19,2716.06,3.16385,2.33122
1425.0,3.1587,622.102,2722.45,2720.32,3.16244,2.32981
1428.0,3.16207,622.267,2726.71,2724.58,3.15773,2.3251
1431.0,3.15317,622.431,2730.96,2728.83,3.15317,2.32054
1434.0,3.1555,622.596,2735.22,2733.08,3.1555,2.32287
1437.0,3.15165,622.761,2739.47,2737.33,3.14943,2.3168
1440.0,3.14803,622.926,2743.72,2741.58,3.14803,2.3154
1443.0,3.14459,623.091,2747.97,2745.82,3.14433,2.3117
1446.0,3.14503,623.256,2752.21,2750.07,3.14433,2.3117
1449.0,3.13853,623.42,2756.45,2754.31,3.13853,2.3059
1452.0,3.13448,623.585,2760.69,2758.55,3.13025,2.29762
1455.0,3.13387,623.75,2764.93,2762.78,3.12795,2.29532
1458.0,3.12763,623.915,2769.17,2767.01,3.12325,2.29062
1461.0,3.13963,624.08,2773.4,2771.25,3.12325,2.29062
1464.0,3.1226,624.245,2777.63,2775.48,3.12291,2.29028
1467.0,3.11831,624.409,2781.86,2779.7,3.11602,2.28339
1470.0,3.1116,624.574,2786.09,2783.93,3.11345,2.28082
1473.0,3.11372,624.739,2790.31,2788.15,3.11345,2.28082
1476.0,3.10898,624.904,2794.53,2792.37,3.10898,2.27635
1479.0,3.10555,625.069,2798.75,2796.59,3.10324,2.27061
1482.0,3.09893,625.234,2802.97,2800.8,3.09893,2.2663
1485.0,3.09765,625.399,2807.19,2805.02,3.09767,2.26504
1488.0,3.08993,625.563,2811.4,2809.23,3.09174,2.25911
1491.0,3.0902,625.728,2815.61,2813.44,3.0902,2.25757
1494.0,3.08647,625.893,2819.82,2817.65,3.08588,2.25325
1497.0,3.08346,626.058,2824.03,2821.85,3.08444,2.25181
1500.0,3.07634,626.223,2828.23,2826.05,3.0836,2.25097
1503.0,3.07997,626.388,2832.44,2830.25,3.07854,2.24591
1506.0,3.07469,626.552,2836.64,2834.45,3.07747,2.24484
1509.0,3.07231,626.717,2840.83,2838.65,3.07231,2.23968
1512.0,3.06771,626.882,2845.03,2842.84,3.06771,2.23508
1515.0,3.07917,627.047,2849.22,2847.03,3.06492,2.23229
1518.0,3.06301,627.212,2853.41,2851.22,3.06126,2.22863
1521.0,3.05948,627.377,2857.6,2855.41,3.05857,2.22594
1524.0,3.05627,627.541,2861.79,2859.59,3.05571,2.22308
1527.0,3.05348,627.706,2865.97,2863.78,3.05348,2.22085
1530.0,3.04685,627.871,2870.16,2867.96,3.04725,2.21462
1533.0,3.0419,628.036,2874.34,2872.14,3.04227,2.20964
1536.0,3.03695,628.201,2878.52,2876.31,3.03816,2.20553
1539.0,3.03564,628.366,2882.69,2880.49,3.03781,2.20518
1542.0,3.03113,628.53,2886.87,2884.66,3.0342,2.20157
1545.0,3.0326,628.695,2891.04,2888.83,3.0326,2.19997
1548.0,3.02541,628.86,2895.21,2892.99,3.02245,2.18982
1551.0,3.02512,629.025,2899.37,2897.16,3.02261,2.18998
1554.0,3.01647,629.19,2903.54,2901.32,3.02226,2.18963
1557.0,3.01569,629.355,2907.7,2905.48,3.01569,2.18306
1560.0,3.00701,629.52,2911.86,2909.64,3.01352,2.18089
1563.0,3.00861,629.684,2916.02,2913.8,3.01202,2.17939
1566.0,3.01535,629.849,2920.18,2917.95,3.01601,2.18338
1569.0,3.02427,630.014,2924.33,2922.1,3.02427,2.19164
1572.0,3.03328,630.179,2928.48,2926.25,3.03453,2.2019
1575.0,3.03084,630.344,2932.63,2930.4,3.03084,2.19821
1578.0,3.01481,630.509,2936.78,2934.55,3.01481,2.18218
1581.0,2.99539,630.673,2940.93,2938.69,3.00033,2.1677
1584.0,2.99367,630.838,2945.07,2942.83,2.99311,2.16048
1587.0,2.98211,631.003,2949.21,2946.97,2.98628,2.15365
1590.0,2.98912,631.168,2953.35,2951.11,2.99793,2.1653
1593.0,3.0032,631.333,2957.49,2955.24,3.0032,2.17057
1596.0,3.03484,631.498,2961.62,2959.38,3.03386,2.20123
1599.0,3.02119,631.662,2965.75,2963.51,3.02344,2.19081
1602.0,3.01811,631.827,2969.88,2967.64,3.01811,2.18548
1605.0,2.99373,631.992,2974.01,2971.76,2.99373,2.1611
1608.0,2.96584,632.157,2978.14,2975.89,2.96584,2.13321
1611.0,2.94496,632.322,2982.26,2980.01,2.94496,2.11233
1614.0,2.93614,632.487,2986.38,2984.13,2.93388,2.10125
1617.0,2.91881,632.651,2990.5,2988.24,2.91881,2.08618
1620.0,2.90923,632.816,2994.62,2992.36,2.91236,2.07973
1623.0,2.9095,632.981,2998.73,2996.47,2.9064,2.07377
1626.0,2.90702,633.146,3002.85,3000.58,2.90682,2.07419
1629.0,2.90277,633.311,3006.96,3004.69,2.90682,2.07419
1632.0,2.90767,633.476,3011.07,3008.8,2.90683,2.0742
1635.0,2.8985,633.641,3015.17,3012.91,2.8985,2.06587
1638.0,2.89498,633.805,3019.28,3017.01,2.89498,2.06235
1641.0,2.88946,633.97,3023.38,3021.11,2.88656,2.05393
1644.0,2.88136,634.135,3027.48,3025.21,2.88136,2.04873
1647.0,2.87471,634.3,3031.58,3029.3,2.87667,2.04404
1650.0,2.87561,634.465,3035.68,3033.4,2.87133,2.0387
1653.0,2.86904,634.63,3039.77,3037.49,2.86904,2.03641
1656.0,2.85989,634.794,3043.86,3041.58,2.86253,2.0299
1659.0,2.86226,634.959,3047.95,3045.67,2.86253,2.0299
1662.0,2.87053,635.124,3052.04,3049.75,2.87621,2.04358
1665.0,2.88235,635.289,3056.12,3053.84,2.88044,2.04781
1668.0,2.88135,635.454,3060.21,3057.92,2.88135,2.04872
1671.0,2.87732,635.619,3064.29,3062,2.87732,2.04469
1674.0,2.86016,635.783,3068.37,3066.07,2.86016,2.02753
1677.0,2.83159,635.948,3072.44,3070.15,2.83159,1.99896
1680.0,2.81898,636.113,3076.52,3074.22,2.81898,1.98635
1683.0,2.80286,636.278,3080.59,3078.29,2.80286,1.97023
1686.0,2.78586,636.443,3084.66,3082.36,2.78586,1.95323
1689.0,2.77886,636.608,3088.73,3086.43,2.77886,1.94623
1692.0,2.7695,636.772,3092.8,3090.49,2.7695,1.93687
1695.0,2.76177,636.937,3096.86,3094.55,2.76207,1.92944
1698.0,2.75693,637.102,3100.92,3098.61,2.75866,1.92603
1701.0,2.7496,637.267,3104.98,3102.67,2.75109,1.91846
1704.0,2.74088,637.432,3109.04,3106.73,2.74088,1.90825
1707.0,2.74059,637.597,3113.1,3110.78,2.74009,1.90746
1710.0,2.73245,637.762,3117.15,3114.83,2.73185,1.89922
1713.0,2.72389,637.926,3121.2,3118.88,2.72582,1.89319
1716.0,2.72416,638.091,3125.25,3122.93,2.72416,1.89153
1719.0,2.71966,638.256,3129.3,3126.98,2.71966,1.88703
1722.0,2.71333,638.421,3133.34,3131.02,2.71333,1.8807
1725.0,2.70779,638.586,3137.39,3135.06,2.70779,1.87516
1728.0,2.70033,638.751,3141.43,3139.1,2.70268,1.87005
1731.0,2.6965,638.915,3145.47,3143.14,2.69678,1.86415
1734.0,2.69014,639.08,3149.51,3147.17,2.69395,1.86132
1737.0,2.68952,639.245,3153.54,3151.21,2.68968,1.85705
1740.0,2.68193,639.41,3157.57,3155.24,2.68193,1.8493
1743.0,2.67293,639.575,3161.6,3159.27,2.67292,1.84029
1746.0,2.67087,639.74,3165.63,3163.29,2.67031,1.83768
1749.0,2.66994,639.904,3169.66,3167.32,2.66738,1.83475
1752.0,2.66366,640.069,3173.68,3171.34,2.66174,1.82911
1755.0,2.65496,640.234,3177.71,3175.36,2.65314,1.82051
1758.0,2.649,640.399,3181.73,3179.38,2.65114,1.81851
1761.0,2.64869,640.564,3185.75,3183.4,2.64725,1.81462
1764.0,2.63887,640.729,3189.76,3187.41,2.63887,1.80624
1767.0,2.63355,640.893,3193.78,3191.42,2.6336,1.80097
1770.0,2.62611,641.058,3197.79,3195.43,2.62945,1.79682
1773.0,2.62412,641.223,3201.8,3199.44,2.62157,1.78894
1776.0,2.61517,641.388,3205.81,3203.45,2.61581,1.78318
1779.0,2.61191,641.553,3209.81,3207.45,2.61191,1.77928
1782.0,2.60439,641.718,3213.82,3211.45,2.60439,1.77176
1785.0,2.59547,641.883,3217.82,3215.45,2.59547,1.76284
1788.0,2.59026,642.047,3221.82,3219.45,2.59026,1.75763
1791.0,2.58511,642.212,3225.82,3223.45,2.58511,1.75248
1794.0,2.57943,642.377,3229.81,3227.44,2.57943,1.7468
1797.0,2.57433,642.542,3233.81,3231.43,2.57433,1.7417
1800.0,2.5703,642.707,3237.8,3235.42,2.56988,1.73725
1803.0,2.56144,642.872,3241.79,3239.41,2.56144,1.72881
1806.0,2.55884,643.036,3245.77,3243.4,2.55804,1.72541
1809.0,2.56354,643.201,3249.76,3247.38,2.55302,1.72039
1812.0,2.54126,643.366,3253.74,3251.36,2.54659,1.71396
1815.0,2.54013,643.531,3257.72,3255.34,2.54013,1.7075
1818.0,2.5294,643.696,3261.7,3259.32,2.53624,1.70361
1821.0,2.52345,643.861,3265.68,3263.29,2.52904,1.69641
1824.0,2.5216,644.025,3269.66,3267.27,2.52362,1.69099
1827.0,2.51395,644.19,3273.63,3271.24,2.51954,1.68691
1830.0,2.51712,644.355,3277.6,3275.21,2.51665,1.68402
1833.0,2.5086,644.52,3281.57,3279.18,2.50837,1.67574
1836.0,2.50254,644.685,3285.54,3283.14,2.50099,1.66836
1839.0,2.49501,644.85,3289.5,3287.1,2.49468,1.66205
1842.0,2.48873,645.015,3293.47,3291.07,2.48873,1.6561
1845.0,2.48604,645.179,3297.43,3295.02,2.48556,1.65293
1848.0,2.48234,645.344,3301.39,3298.98,2.48033,1.6477
1851.0,2.47465,645.509,3305.34,3302.94,2.47465,1.64202
1854.0,2.47066,645.674,3309.3,3306.89,2.47066,1.63803
1857.0,2.45898,645.839,3313.25,3310.84,2.46417,1.63154
1860.0,2.4583,646.004,3317.2,3314.79,2.4583,1.62567
1863.0,2.454,646.168,3321.15,3318.74,2.45325,1.62062
1866.0,2.44837,646.333,3325.1,3322.68,2.44837,1.61574
1869.0,2.44501,646.498,3329.04,3326.63,2.44333,1.6107
1872.0,2.44216,646.663,3332.98,3330.57,2.43887,1.60624
1875.0,2.43004,646.828,3336.93,3334.51,2.43022,1.59759
1878.0,2.42593,646.993,3340.86,3338.44,2.42593,1.5933
1881.0,2.42219,647.157,3344.8,3342.38,2.42047,1.58784
1884.0,2.4079,647.322,3348.74,3346.31,2.4148,1.58217
1887.0,2.41282,647.487,3352.67,3350.24,2.41282,1.58019
1890.0,2.40688,647.652,3356.6,3354.17,2.40688,1.57425
1893.0,2.3981,647.817,3360.53,3358.1,2.3981,1.56547
1896.0,2.3982,647.982,3364.46,3362.02,2.39286,1.56023
1899.0,2.3877,648.146,3368.38,3365.95,2.3877,1.55507
1902.0,2.37951,648.311,3372.3,3369.87,2.37951,1.54688
1905.0,2.37404,648.476,3376.22,3373.79,2.3751,1.54247
1908.0,2.37148,648.641,3380.14,3377.7,2.37148,1.53885
1911.0,2.36726,648.806,3384.06,3381.62,2.36525,1.53262
1914.0,2.35541,648.971,3387.98,3385.53,2.35564,1.52301
1917.0,2.34975,649.136,3391.89,3389.44,2.35298,1.52035
1920.0,2.34755,649.3,3395.8,3393.35,2.35048,1.51785
1923.0,2.339,649.465,3399.71,3397.26,2.339,1.50637
1926.0,2.32981,649.63,3403.62,3401.16,2.32981,1.49718
1929.0,2.32428,649.795,3407.52,3405.07,2.32567,1.49304
1932.0,2.32801,649.96,3411.42,3408.97,2.31903,1.4864
1935.0,2.31247,650.125,3415.32,3412.87,2.31247,1.47984
1938.0,2.30756,650.289,3419.22,3416.76,2.30756,1.47493
1941.0,2.29645,650.454,3423.12,3420.66,2.29666,1.46403
1944.0,2.29663,650.619,3427.02,3424.55,2.2961,1.46347
1947.0,2.28976,650.784,3430.91,3428.44,2.28976,1.45713
1950.0,2.27752,650.949,3434.8,3432.33,2.27959,1.44696
1953.0,2.27342,651.114,3438.69,3436.22,2.27342,1.44079
1956.0,2.26527,651.278,3442.58,3440.11,2.27177,1.43914
1959.0,2.26035,651.443,3446.46,3443.99,2.26035,1.42772
1962.0,2.25861,651.608,3450.34,3447.87,2.25861,1.42598
1965.0,2.24689,651.773,3454.23,3451.75,2.24689,1.41426
1968.0,2.25119,651.938,3458.11,3455.63,2.24427,1.41164
1971.0,2.23407,652.103,3461.98,3459.5,2.2377,1.40507
1974.0,2.23303,652.267,3465.86,3463.38,2.23303,1.4004
1977.0,2.22325,652.432,3469.73,3467.25,2.22611,1.39348
1980.0,2.22238,652.597,3473.6,3471.12,2.22238,1.38975
1983.0,2.21667,652.762,3477.47,3474.99,2.21303,1.3804
1986.0,2.20514,652.927,3481.34,3478.85,2.20514,1.37251
1989.0,2.20295,653.092,3485.21,3482.72,2.20268,1.37005
1992.0,2.19157,653.257,3489.07,3486.58,2.19802,1.36539
1995.0,2.19195,653.421,3492.93,3490.44,2.19195,1.35932
1998.0,2.18596,653.586,3496.79,3494.3,2.18596,1.35333
2001.0,2.17689,653.751,3500.65,3498.15,2.17689,1.34426
2004.0,2.17263,653.916,3504.51,3502.01,2.17263,1.34
2007.0,2.16439,654.081,3508.36,3505.86,2.16744,1.33481
2010.0,2.15786,654.246,3512.21,3509.71,2.15986,1.32723
2013.0,2.15858,654.41,3516.06,3513.56,2.15858,1.32595
2016.0,2.14912,654.575,3519.91,3517.4,2.15108,1.31845
2019.0,2.14586,654.74,3523.76,3521.25,2.14586,1.31323
2022.0,2.135,654.905,3527.6,3525.09,2.13785,1.30522
2025.0,2.13103,655.07,3531.44,3528.93,2.13245,1.29982
2028.0,2.12486,655.235,3535.28,3532.77,2.12486,1.29223
2031.0,2.12057,655.399,3539.12,3536.61,2.12127,1.28864
2034.0,2.11602,655.564,3542.96,3540.44,2.11602,1.28339
2037.0,2.10596,655.729,3546.79,3544.27,2.10596,1.27333
2040.0,2.10625,655.894,3550.63,3548.1,2.10548,1.27285
2043.0,2.1027,656.059,3554.46,3551.93,2.1027,1.27007
2046.0,2.09383,656.224,3558.28,3555.76,2.09383,1.2612
2047.0,2.0945,656.279,3559.56,3557.04,2.09302,1.26039