File: data/processed/processed_data/2024-10-11/2024-10-11_glycinepowder_n_n_n_solid_10000_0_5.csv
Pixels #,Intensity (a.u.),Wavelength (nm),Raman shift (cm-1),Raman shift (cm-1) adjusted,Filtered Intensity (a.u.),Baselined Filtered Intensity (a.u.)
0.0,0.877735,543.803,407.968,406.929,0.876808,-0.0382126
3.0,0.875048,543.967,413.541,412.499,0.876808,-0.0382128
6.0,0.880767,544.132,419.11,418.065,0.87715,-0.0378714
9.0,0.878124,544.297,424.676,423.628,0.876667,-0.0383552
12.0,0.880263,544.462,430.238,429.188,0.875172,-0.0398514
15.0,0.876428,544.627,435.797,434.744,0.874798,-0.0402268
18.0,0.878817,544.792,441.353,440.297,0.874127,-0.0408996
21.0,0.877266,544.957,446.905,445.847,0.874237,-0.0407918
24.0,0.874788,545.121,452.454,451.393,0.874311,-0.0407203
27.0,0.87802,545.286,457.999,456.936,0.875777,-0.0392571
30.0,0.875023,545.451,463.542,462.476,0.878976,-0.0360612
33.0,0.878213,545.616,469.08,468.012,0.881312,-0.0337286
36.0,0.879029,545.781,474.616,473.545,0.879029,-0.0360153
39.0,0.909688,545.946,480.148,479.075,0.882159,-0.0328894
42.0,0.88643,546.11,485.677,484.601,0.88643,-0.0286226
45.0,0.901068,546.275,491.202,490.124,0.901068,-0.013989
48.0,0.930787,546.44,496.725,495.643,0.930787,0.0157254
51.0,0.960754,546.605,502.243,501.16,0.960754,0.045688
54.0,1.01237,546.77,507.759,506.672,1.01237,0.0972999
57.0,1.03506,546.935,513.271,512.182,1.03506,0.119987
60.0,1.05707,547.099,518.78,517.688,1.05707,0.141994
63.0,1.07246,547.264,524.285,523.191,1.07246,0.157384
66.0,1.09042,547.429,529.788,528.691,1.09042,0.175344
69.0,1.10542,547.594,535.287,534.187,1.10542,0.190344
72.0,1.11439,547.759,540.782,539.68,1.11646,0.201384
75.0,1.12259,547.924,546.275,545.17,1.12255,0.207474
78.0,1.13016,548.088,551.763,550.656,1.12873,0.213654
81.0,1.13312,548.253,557.249,556.139,1.13009,0.215014
84.0,1.13078,548.418,562.732,561.619,1.13118,0.216104
87.0,1.13297,548.583,568.211,567.096,1.13297,0.217894
90.0,1.13525,548.748,573.686,572.569,1.13525,0.220174
93.0,1.13765,548.913,579.159,578.039,1.13898,0.223904
96.0,1.139,549.078,584.628,583.506,1.14036,0.225284
99.0,1.14622,549.242,590.094,588.969,1.14622,0.231144
102.0,1.15207,549.407,595.557,594.429,1.14745,0.232374
105.0,1.15136,549.572,601.016,599.886,1.15136,0.236284
108.0,1.15127,549.737,606.472,605.339,1.15001,0.234934
111.0,1.14672,549.902,611.925,610.79,1.14666,0.231584
114.0,1.14191,550.067,617.375,616.237,1.14515,0.230074
117.0,1.1398,550.231,622.821,621.68,1.14505,0.229974
120.0,1.13921,550.396,628.264,627.121,1.13942,0.224344
123.0,1.13806,550.561,633.704,632.558,1.13906,0.223984
126.0,1.1351,550.726,639.14,637.992,1.13845,0.223374
129.0,1.13725,550.891,644.574,643.423,1.13771,0.222634
132.0,1.14264,551.056,650.004,648.85,1.13771,0.222634
135.0,1.13954,551.22,655.431,654.274,1.14164,0.226564
138.0,1.14387,551.385,660.854,659.695,1.14387,0.228794
141.0,1.14429,551.55,666.274,665.113,1.14801,0.232934
144.0,1.15193,551.715,671.691,670.528,1.15193,0.236854
147.0,1.15368,551.88,677.105,675.939,1.1545,0.239424
150.0,1.16285,552.045,682.516,681.347,1.16463,0.249554
153.0,1.16871,552.209,687.923,686.752,1.16871,0.253634
156.0,1.17762,552.374,693.327,692.153,1.17842,0.263344
159.0,1.1958,552.539,698.728,697.552,1.18903,0.273954
162.0,1.18968,552.704,704.126,702.947,1.19051,0.275434
165.0,1.19818,552.869,709.52,708.339,1.19818,0.283104
168.0,1.20868,553.034,714.912,713.727,1.20926,0.294184
171.0,1.22076,553.199,720.3,719.113,1.22076,0.305684
174.0,1.22984,553.363,725.684,724.495,1.22984,0.314764
177.0,1.23929,553.528,731.066,729.874,1.24116,0.326084
180.0,1.2628,553.693,736.444,735.25,1.2628,0.347724
183.0,1.27294,553.858,741.82,740.623,1.27294,0.357864
186.0,1.29183,554.023,747.192,745.992,1.29316,0.378084
189.0,1.30764,554.188,752.561,751.359,1.30764,0.392564
192.0,1.3275,554.352,757.926,756.722,1.3275,0.412424
195.0,1.35486,554.517,763.289,762.082,1.35486,0.439784
198.0,1.37472,554.682,768.648,767.438,1.37472,0.459644
201.0,1.39813,554.847,774.004,772.792,1.39813,0.483054
204.0,1.43192,555.012,779.357,778.142,1.43192,0.516844
207.0,1.45705,555.177,784.706,783.489,1.45705,0.541974
210.0,1.49493,555.341,790.053,788.833,1.49493,0.579854
213.0,1.53442,555.506,795.396,794.174,1.53442,0.619344
216.0,1.57702,555.671,800.737,799.512,1.57702,0.661944
219.0,1.61699,555.836,806.074,804.846,1.61699,0.701914
222.0,1.66453,556.001,811.407,810.178,1.66453,0.749454
225.0,1.71155,556.166,816.738,815.506,1.71155,0.796474
228.0,1.75962,556.33,822.066,820.831,1.75962,0.844544
231.0,1.81159,556.495,827.39,826.153,1.81159,0.896514
234.0,1.85983,556.66,832.711,831.472,1.85983,0.944754
237.0,1.9063,556.825,838.029,836.787,1.9063,0.991224
240.0,1.95224,556.99,843.344,842.1,1.95224,1.03716
243.0,2.00066,557.155,848.656,847.409,2.00066,1.08558
246.0,2.04369,557.32,853.965,852.715,2.04369,1.12861
249.0,2.09829,557.484,859.27,858.018,2.09334,1.17826
252.0,2.11783,557.649,864.572,863.318,2.11783,1.20275
255.0,2.15181,557.814,869.872,868.615,2.15181,1.23673
258.0,2.18047,557.979,875.168,873.908,2.18047,1.26539
261.0,2.22454,558.144,880.461,879.199,2.22454,1.30946
264.0,2.28938,558.309,885.751,884.486,2.28938,1.3743
267.0,2.32844,558.473,891.037,889.77,2.32844,1.41336
270.0,2.34084,558.638,896.321,895.051,2.33581,1.42073
273.0,2.32536,558.803,901.601,900.329,2.32536,1.41028
276.0,2.29098,558.968,906.879,905.604,2.29098,1.3759
279.0,2.28786,559.133,912.153,910.876,2.2869,1.37182
282.0,2.29191,559.298,917.424,916.145,2.29074,1.37566
285.0,2.29207,559.462,922.692,921.41,2.29207,1.37699
288.0,2.29508,559.627,927.957,926.673,2.29749,1.38241
291.0,2.2956,559.792,933.219,931.932,2.29808,1.383
294.0,2.29878,559.957,938.478,937.188,2.29878,1.3837
297.0,2.29942,560.122,943.733,942.441,2.30451,1.38943
300.0,2.29952,560.287,948.986,947.691,2.30491,1.38983
303.0,2.29913,560.452,954.235,952.938,2.30339,1.38831
306.0,2.30277,560.616,959.482,958.182,2.30339,1.38831
309.0,2.30462,560.781,964.725,963.423,2.30599,1.39091
312.0,2.3027,560.946,969.965,968.661,2.30814,1.39306
315.0,2.30672,561.111,975.202,973.896,2.30917,1.39409
318.0,2.31254,561.276,980.436,979.127,2.31352,1.39844
321.0,2.313,561.441,985.667,984.356,2.31645,1.40137
324.0,2.32353,561.605,990.895,989.581,2.32533,1.41025
327.0,2.33043,561.77,996.12,994.803,2.33029,1.41521
330.0,2.33323,561.935,1001.34,1000.02,2.3347,1.41962
333.0,2.33798,562.1,1006.56,1005.24,2.33719,1.42211
336.0,2.34856,562.265,1011.78,1010.45,2.34991,1.43483
339.0,2.3606,562.43,1016.99,1015.66,2.3576,1.44252
342.0,2.36454,562.594,1022.2,1020.87,2.36454,1.44946
345.0,2.38415,562.759,1027.4,1026.07,2.38415,1.46907
348.0,2.40353,562.924,1032.61,1031.27,2.40353,1.48845
351.0,2.41162,563.089,1037.81,1036.47,2.40764,1.49256
354.0,2.40902,563.254,1043.01,1041.67,2.40764,1.49256
357.0,2.40384,563.419,1048.2,1046.86,2.40301,1.48793
360.0,2.4011,563.583,1053.39,1052.05,2.40106,1.48598
363.0,2.40581,563.748,1058.58,1057.23,2.40106,1.48598
366.0,2.40521,563.913,1063.77,1062.42,2.40614,1.49106
369.0,2.41069,564.078,1068.95,1067.6,2.4092,1.49412
372.0,2.4111,564.243,1074.13,1072.77,2.41136,1.49628
375.0,2.40716,564.408,1079.3,1077.95,2.41136,1.49628
378.0,2.42334,564.573,1084.48,1083.12,2.41412,1.49904
381.0,2.4152,564.737,1089.65,1088.28,2.4152,1.50012
384.0,2.42089,564.902,1094.81,1093.45,2.42058,1.5055
387.0,2.42712,565.067,1099.98,1098.61,2.42712,1.51204
390.0,2.43031,565.232,1105.14,1103.77,2.42869,1.51361
393.0,2.42959,565.397,1110.3,1108.93,2.42959,1.51451
396.0,2.43141,565.562,1115.45,1114.08,2.42933,1.51425
399.0,2.43157,565.726,1120.6,1119.23,2.42933,1.51425
402.0,2.43078,565.891,1125.75,1124.37,2.43149,1.51641
405.0,2.44888,566.056,1130.9,1129.52,2.44104,1.52596
408.0,2.44576,566.221,1136.04,1134.66,2.44302,1.52794
411.0,2.44655,566.386,1141.18,1139.8,2.44655,1.53147
414.0,2.44513,566.551,1146.32,1144.93,2.44614,1.53106
417.0,2.44386,566.715,1151.45,1150.06,2.44386,1.52878
420.0,2.44265,566.88,1156.58,1155.19,2.44327,1.52819
423.0,2.44821,567.045,1161.71,1160.32,2.44538,1.5303
426.0,2.44358,567.21,1166.84,1165.44,2.44748,1.5324
429.0,2.44988,567.375,1171.96,1170.56,2.45018,1.5351
432.0,2.45718,567.54,1177.08,1175.68,2.45718,1.5421
435.0,2.4563,567.704,1182.19,1180.79,2.46097,1.54589
438.0,2.45813,567.869,1187.31,1185.9,2.46097,1.54589
441.0,2.46865,568.034,1192.42,1191.01,2.46717,1.55209
444.0,2.46958,568.199,1197.52,1196.11,2.46958,1.5545
447.0,2.47472,568.364,1202.63,1201.21,2.47064,1.55556
450.0,2.47462,568.529,1207.73,1206.31,2.47462,1.55954
453.0,2.48178,568.694,1212.83,1211.41,2.47621,1.56113
456.0,2.48225,568.858,1217.92,1216.5,2.48225,1.56717
459.0,2.49122,569.023,1223.02,1221.59,2.48601,1.57093
462.0,2.49179,569.188,1228.11,1226.68,2.49057,1.57549
465.0,2.48884,569.353,1233.19,1231.76,2.48947,1.57439
468.0,2.49042,569.518,1238.28,1236.85,2.48989,1.57481
471.0,2.50024,569.683,1243.36,1241.92,2.49394,1.57886
474.0,2.49539,569.847,1248.43,1247,2.49465,1.57957
477.0,2.49495,570.012,1253.51,1252.07,2.49498,1.5799
480.0,2.49674,570.177,1258.58,1257.14,2.49674,1.58166
483.0,2.50651,570.342,1263.65,1262.21,2.50159,1.58651
486.0,2.50251,570.507,1268.72,1267.27,2.50432,1.58924
489.0,2.50506,570.672,1273.78,1272.33,2.50631,1.59123
492.0,2.50636,570.836,1278.84,1277.39,2.50868,1.5936
495.0,2.51855,571.001,1283.9,1282.44,2.51855,1.60347
498.0,2.51575,571.166,1288.95,1287.5,2.51693,1.60185
501.0,2.52048,571.331,1294,1292.55,2.52048,1.6054
504.0,2.53111,571.496,1299.05,1297.59,2.53427,1.61919
507.0,2.544,571.661,1304.1,1302.63,2.544,1.62892
510.0,2.56376,571.825,1309.14,1307.67,2.56376,1.64868
513.0,2.60603,571.99,1314.18,1312.71,2.60603,1.69095
516.0,2.6583,572.155,1319.22,1317.75,2.6583,1.74322
519.0,2.68889,572.32,1324.25,1322.78,2.68083,1.76575
522.0,2.67219,572.485,1329.28,1327.81,2.67219,1.75711
525.0,2.62274,572.65,1334.31,1332.83,2.62274,1.70766
528.0,2.56404,572.815,1339.33,1337.86,2.56404,1.64896
531.0,2.54974,572.979,1344.36,1342.88,2.54974,1.63466
534.0,2.54818,573.144,1349.38,1347.89,2.54818,1.6331
537.0,2.54668,573.309,1354.39,1352.91,2.54668,1.6316
540.0,2.54815,573.474,1359.41,1357.92,2.54815,1.63307
543.0,2.54891,573.639,1364.42,1362.93,2.55433,1.63925
546.0,2.5541,573.804,1369.43,1367.93,2.55582,1.64074
549.0,2.56032,573.968,1374.43,1372.94,2.56001,1.64493
552.0,2.56985,574.133,1379.43,1377.94,2.56722,1.65214
555.0,2.57199,574.298,1384.43,1382.93,2.57128,1.6562
558.0,2.57763,574.463,1389.43,1387.93,2.58248,1.6674
561.0,2.59182,574.628,1394.42,1392.92,2.59356,1.67848
564.0,2.60399,574.793,1399.41,1397.91,2.60399,1.68891
567.0,2.627,574.957,1404.4,1402.89,2.62599,1.71091
570.0,2.63072,575.122,1409.39,1407.87,2.63072,1.71564
573.0,2.64358,575.287,1414.37,1412.85,2.62835,1.71327
576.0,2.61978,575.452,1419.35,1417.83,2.61978,1.7047
579.0,2.61208,575.617,1424.32,1422.81,2.60617,1.69109
582.0,2.59599,575.782,1429.3,1427.78,2.5959,1.68082
585.0,2.61463,575.946,1434.27,1432.74,2.6011,1.68602
588.0,2.60286,576.111,1439.24,1437.71,2.60286,1.68778
591.0,2.60439,576.276,1444.2,1442.67,2.60947,1.69439
594.0,2.61002,576.441,1449.16,1447.63,2.6113,1.69622
597.0,2.61118,576.606,1454.12,1452.59,2.61118,1.6961
600.0,2.61289,576.771,1459.08,1457.54,2.6092,1.69412
603.0,2.60479,576.936,1464.03,1462.5,2.60439,1.68931
606.0,2.60249,577.1,1468.98,1467.44,2.59965,1.68457
609.0,2.59278,577.265,1473.93,1472.39,2.59294,1.67786
612.0,2.59203,577.43,1478.88,1477.33,2.59203,1.67695
615.0,2.59579,577.595,1483.82,1482.27,2.59569,1.68061
618.0,2.59758,577.76,1488.76,1487.21,2.59758,1.6825
621.0,2.60185,577.925,1493.7,1492.14,2.60378,1.6887
624.0,2.61342,578.089,1498.63,1497.08,2.60614,1.69106
627.0,2.6087,578.254,1503.56,1502.01,2.61319,1.69811
630.0,2.64188,578.419,1508.49,1506.93,2.61942,1.70434
633.0,2.61675,578.584,1513.41,1511.85,2.61783,1.70275
636.0,2.62197,578.749,1518.34,1516.77,2.61882,1.70374
639.0,2.62095,578.914,1523.26,1521.69,2.61882,1.70374
642.0,2.61533,579.078,1528.17,1526.61,2.61626,1.70118
645.0,2.61407,579.243,1533.09,1531.52,2.6151,1.70002
648.0,2.61717,579.408,1538,1536.43,2.6151,1.70002
651.0,2.61601,579.573,1542.91,1541.33,2.61625,1.70117
654.0,2.62032,579.738,1547.82,1546.24,2.62095,1.70587
657.0,2.62205,579.903,1552.72,1551.14,2.62176,1.70668
660.0,2.63317,580.067,1557.62,1556.04,2.63036,1.71528
663.0,2.63115,580.232,1562.52,1560.93,2.63242,1.71734
666.0,2.64751,580.397,1567.41,1565.83,2.64142,1.72634
669.0,2.64353,580.562,1572.3,1570.72,2.64056,1.72548
672.0,2.70773,580.727,1577.19,1575.6,2.64015,1.72507
675.0,2.62435,580.892,1582.08,1580.49,2.62633,1.71125
678.0,2.61894,581.057,1586.96,1585.37,2.61933,1.70425
681.0,2.61728,581.221,1591.84,1590.25,2.61898,1.7039
684.0,2.61671,581.386,1596.72,1595.12,2.61671,1.70163
687.0,2.62465,581.551,1601.6,1600,2.61611,1.70103
690.0,2.6136,581.716,1606.47,1604.87,2.61854,1.70346
693.0,2.61847,581.881,1611.34,1609.73,2.61922,1.70414
696.0,2.61794,582.046,1616.21,1614.6,2.61992,1.70484
699.0,2.6173,582.21,1621.07,1619.46,2.62062,1.70554
702.0,2.6274,582.375,1625.93,1624.32,2.62466,1.70958
705.0,2.61738,582.54,1630.79,1629.18,2.62003,1.70495
708.0,2.62363,582.705,1635.65,1634.03,2.62042,1.70534
711.0,2.62427,582.87,1640.5,1638.88,2.62042,1.70534
714.0,2.62025,583.035,1645.35,1643.73,2.62081,1.70573
717.0,2.61955,583.199,1650.2,1648.57,2.62081,1.70573
720.0,2.62239,583.364,1655.04,1653.42,2.61798,1.7029
723.0,2.62138,583.529,1659.89,1658.26,2.62138,1.7063
726.0,2.6262,583.694,1664.73,1663.1,2.6262,1.71112
729.0,2.63427,583.859,1669.56,1667.93,2.63196,1.71688
732.0,2.63175,584.024,1674.4,1672.76,2.62908,1.714
735.0,2.6275,584.188,1679.23,1677.59,2.62885,1.71377
738.0,2.6244,584.353,1684.06,1682.42,2.6244,1.70932
741.0,2.62406,584.518,1688.88,1687.24,2.62202,1.70694
744.0,2.61721,584.683,1693.71,1692.06,2.6206,1.70552
747.0,2.62366,584.848,1698.53,1696.88,2.62366,1.70858
750.0,2.62119,585.013,1703.35,1701.7,2.62138,1.7063
753.0,2.62362,585.178,1708.16,1706.51,2.62334,1.70826
756.0,2.62608,585.342,1712.97,1711.32,2.62334,1.70826
759.0,2.62118,585.507,1717.78,1716.13,2.62118,1.7061
762.0,2.62474,585.672,1722.59,1720.93,2.6233,1.70822
765.0,2.62168,585.837,1727.39,1725.73,2.6231,1.70802
768.0,2.62472,586.002,1732.2,1730.53,2.6269,1.71182
771.0,2.62744,586.167,1737,1735.33,2.6269,1.71182
774.0,2.6299,586.331,1741.79,1740.12,2.62632,1.71124
777.0,2.62508,586.496,1746.58,1744.91,2.62738,1.7123
780.0,2.62529,586.661,1751.38,1749.7,2.62738,1.7123
783.0,2.67716,586.826,1756.16,1754.49,2.62515,1.71007
786.0,2.62873,586.991,1760.95,1759.27,2.62515,1.71007
789.0,2.63092,587.156,1765.73,1764.05,2.62681,1.71173
792.0,2.628,587.32,1770.51,1768.83,2.62519,1.71011
795.0,2.62798,587.485,1775.29,1773.61,2.6238,1.70872
798.0,2.63216,587.65,1780.06,1778.38,2.62538,1.7103
801.0,2.62611,587.815,1784.84,1783.15,2.62538,1.7103
804.0,2.62782,587.98,1789.61,1787.91,2.62535,1.71027
807.0,2.61956,588.145,1794.37,1792.68,2.62139,1.70631
810.0,2.62577,588.309,1799.14,1797.44,2.62577,1.71069
813.0,2.61991,588.474,1803.9,1802.2,2.62464,1.70956
816.0,2.6183,588.639,1808.66,1806.96,2.62245,1.70737
819.0,2.62853,588.804,1813.41,1811.71,2.62652,1.71144
822.0,2.62396,588.969,1818.17,1816.46,2.62576,1.71068
825.0,2.62424,589.134,1822.92,1821.21,2.6253,1.71022
828.0,2.62909,589.299,1827.66,1825.96,2.62562,1.71054
831.0,2.63268,589.463,1832.41,1830.7,2.62795,1.71287
834.0,2.62743,589.628,1837.15,1835.44,2.62795,1.71287
837.0,2.62757,589.793,1841.89,1840.18,2.62757,1.71249
840.0,2.62545,589.958,1846.63,1844.91,2.62768,1.7126
843.0,2.62815,590.123,1851.36,1849.65,2.62959,1.71451
846.0,2.63342,590.288,1856.1,1854.37,2.63466,1.71958
849.0,2.62645,590.452,1860.83,1859.1,2.62888,1.7138
852.0,2.63054,590.617,1865.55,1863.83,2.6292,1.71412
855.0,2.63246,590.782,1870.28,1868.55,2.62991,1.71483
858.0,2.63192,590.947,1875,1873.27,2.63009,1.71501
861.0,2.63114,591.112,1879.72,1877.98,2.63114,1.71606
864.0,2.63056,591.277,1884.43,1882.7,2.63492,1.71984
867.0,2.64399,591.441,1889.15,1887.41,2.63492,1.71984
870.0,2.63241,591.606,1893.86,1892.12,2.6301,1.71502
873.0,2.63254,591.771,1898.57,1896.83,2.62866,1.71358
876.0,2.62889,591.936,1903.27,1901.53,2.62543,1.71035
879.0,2.63115,592.101,1907.98,1906.23,2.62577,1.71069
882.0,2.6269,592.266,1912.68,1910.93,2.6269,1.71182
885.0,2.62315,592.43,1917.38,1915.62,2.62584,1.71076
888.0,2.62521,592.595,1922.07,1920.32,2.62656,1.71148
891.0,2.62342,592.76,1926.76,1925.01,2.62342,1.70834
894.0,2.62321,592.925,1931.45,1929.7,2.62253,1.70745
897.0,2.62059,593.09,1936.14,1934.38,2.62059,1.70551
900.0,2.6242,593.255,1940.83,1939.06,2.62083,1.70575
903.0,2.61597,593.42,1945.51,1943.74,2.62083,1.70575
906.0,2.61799,593.584,1950.19,1948.42,2.62149,1.70641
909.0,2.61597,593.749,1954.86,1953.1,2.61597,1.70089
912.0,2.6162,593.914,1959.54,1957.77,2.61555,1.70047
915.0,2.61093,594.079,1964.21,1962.44,2.6111,1.69602
918.0,2.6079,594.244,1968.88,1967.11,2.60884,1.69376
921.0,2.6102,594.409,1973.55,1971.77,2.60688,1.6918
924.0,2.60346,594.573,1978.21,1976.43,2.60656,1.69148
927.0,2.61129,594.738,1982.87,1981.09,2.60705,1.69197
930.0,2.60242,594.903,1987.53,1985.75,2.60328,1.6882
933.0,2.60443,595.068,1992.19,1990.4,2.60443,1.68935
936.0,2.59677,595.233,1996.84,1995.05,2.60153,1.68645
939.0,2.5999,595.398,2001.49,1999.7,2.5999,1.68482
942.0,2.59608,595.562,2006.14,2004.35,2.59686,1.68178
945.0,2.59495,595.727,2010.79,2008.99,2.59245,1.67737
948.0,2.59632,595.892,2015.43,2013.63,2.59245,1.67737
951.0,2.59163,596.057,2020.07,2018.27,2.59163,1.67655
954.0,2.58476,596.222,2024.71,2022.91,2.58476,1.66968
957.0,2.58119,596.387,2029.35,2027.54,2.58224,1.66716
960.0,2.58234,596.551,2033.98,2032.17,2.58357,1.66849
963.0,2.58179,596.716,2038.61,2036.8,2.58425,1.66917
966.0,2.5774,596.881,2043.24,2041.43,2.5774,1.66232
969.0,2.58235,597.046,2047.86,2046.05,2.57663,1.66155
972.0,2.57436,597.211,2052.49,2050.67,2.57705,1.66197
975.0,2.58125,597.376,2057.11,2055.29,2.57705,1.66197
978.0,2.56847,597.541,2061.73,2059.91,2.56952,1.65444
981.0,2.56232,597.705,2066.34,2064.52,2.56683,1.65175
984.0,2.56457,597.87,2070.95,2069.13,2.56641,1.65133
987.0,2.56656,598.035,2075.56,2073.74,2.56641,1.65133
990.0,2.55763,598.2,2080.17,2078.34,2.55763,1.64255
993.0,2.55171,598.365,2084.78,2082.95,2.55351,1.63843
996.0,2.56217,598.53,2089.38,2087.55,2.55202,1.63694
999.0,2.55238,598.694,2093.98,2092.15,2.55202,1.63694
1002.0,2.55032,598.859,2098.58,2096.74,2.5495,1.63442
1005.0,2.54364,599.024,2103.17,2101.33,2.54391,1.62883
1008.0,2.54804,599.189,2107.77,2105.93,2.54391,1.62883
1011.0,2.54012,599.354,2112.36,2110.51,2.54328,1.6282
1014.0,2.53768,599.519,2116.94,2115.1,2.53796,1.62288
1017.0,2.53736,599.683,2121.53,2119.68,2.53736,1.62228
1020.0,2.53562,599.848,2126.11,2124.26,2.53611,1.62103
1023.0,2.53085,600.013,2130.69,2128.84,2.53467,1.61959
1026.0,2.5318,600.178,2135.27,2133.41,2.53341,1.61833
1029.0,2.53382,600.343,2139.84,2137.99,2.53124,1.61616
1032.0,2.52721,600.508,2144.42,2142.56,2.52721,1.61213
1035.0,2.52318,600.672,2148.99,2147.13,2.52417,1.60909
1038.0,2.52114,600.837,2153.55,2151.69,2.52114,1.60606
1041.0,2.52202,601.002,2158.12,2156.25,2.52187,1.60679
1044.0,2.52356,601.167,2162.68,2160.81,2.5188,1.60372
1047.0,2.51115,601.332,2167.24,2165.37,2.51483,1.59975
1050.0,2.51115,601.497,2171.8,2169.93,2.51228,1.5972
1053.0,2.50774,601.662,2176.35,2174.48,2.50774,1.59266
1056.0,2.50496,601.826,2180.9,2179.03,2.50433,1.58925
1059.0,2.50319,601.991,2185.45,2183.58,2.50215,1.58707
1062.0,2.50139,602.156,2190,2188.12,2.50048,1.5854
1065.0,2.4929,602.321,2194.55,2192.67,2.49464,1.57956
1068.0,2.49304,602.486,2199.09,2197.21,2.49448,1.5794
1071.0,2.49224,602.651,2203.63,2201.74,2.49473,1.57965
1074.0,2.49444,602.815,2208.17,2206.28,2.49444,1.57936
1077.0,2.48876,602.98,2212.7,2210.81,2.48943,1.57435
1080.0,2.48853,603.145,2217.23,2215.34,2.48842,1.57334
1083.0,2.49222,603.31,2221.76,2219.87,2.49222,1.57714
1086.0,2.48443,603.475,2226.29,2224.4,2.49163,1.57655
1089.0,2.48333,603.64,2230.82,2228.92,2.48333,1.56825
1092.0,2.48309,603.804,2235.34,2233.44,2.48192,1.56684
1095.0,2.48853,603.969,2239.86,2237.96,2.48089,1.56581
1098.0,2.48663,604.134,2244.38,2242.47,2.47991,1.56483
1101.0,2.48014,604.299,2248.89,2246.99,2.47775,1.56267
1104.0,2.47645,604.464,2253.41,2251.5,2.47645,1.56137
1107.0,2.47201,604.629,2257.92,2256,2.47201,1.55693
1110.0,2.46692,604.794,2262.42,2260.51,2.47268,1.5576
1113.0,2.47526,604.958,2266.93,2265.01,2.47423,1.55915
1116.0,2.46455,605.123,2271.43,2269.51,2.468,1.55292
1119.0,2.46929,605.288,2275.93,2274.01,2.46929,1.55421
1122.0,2.46895,605.453,2280.43,2278.51,2.46095,1.54587
1125.0,2.45888,605.618,2284.93,2283,2.45803,1.54295
1128.0,2.4617,605.783,2289.42,2287.49,2.45724,1.54216
1131.0,2.45493,605.947,2293.91,2291.98,2.45528,1.5402
1134.0,2.45497,606.112,2298.4,2296.47,2.45497,1.53989
1137.0,2.45547,606.277,2302.88,2300.95,2.45391,1.53883
1140.0,2.45077,606.442,2307.37,2305.43,2.45077,1.53569
1143.0,2.44531,606.607,2311.85,2309.91,2.44787,1.53279
1146.0,2.44896,606.772,2316.33,2314.39,2.44787,1.53279
1149.0,2.44467,606.936,2320.8,2318.86,2.44467,1.52959
1152.0,2.44328,607.101,2325.28,2323.33,2.4436,1.52852
1155.0,2.44588,607.266,2329.75,2327.8,2.4436,1.52852
1158.0,2.43663,607.431,2334.22,2332.27,2.44068,1.5256
1161.0,2.43617,607.596,2338.68,2336.73,2.43617,1.52109
1164.0,2.43723,607.761,2343.15,2341.19,2.43516,1.52008
1167.0,2.43925,607.925,2347.61,2345.65,2.43431,1.51923
1170.0,2.43097,608.09,2352.07,2350.11,2.43142,1.51634
1173.0,2.43055,608.255,2356.52,2354.57,2.42905,1.51397
1176.0,2.42823,608.42,2360.98,2359.02,2.42766,1.51258
1179.0,2.4188,608.585,2365.43,2363.47,2.4267,1.51162
1182.0,2.42092,608.75,2369.88,2367.91,2.4267,1.51162
1185.0,2.4137,608.915,2374.33,2372.36,2.41997,1.50489
1188.0,2.41769,609.079,2378.77,2376.8,2.41769,1.50261
1191.0,2.41496,609.244,2383.21,2381.24,2.41253,1.49745
1194.0,2.41102,609.409,2387.65,2385.68,2.41105,1.49597
1197.0,2.4129,609.574,2392.09,2390.12,2.4129,1.49782
1200.0,2.40994,609.739,2396.52,2394.55,2.40941,1.49433
1203.0,2.40675,609.904,2400.96,2398.98,2.40499,1.48991
1206.0,2.40119,610.068,2405.39,2403.41,2.40019,1.48511
1209.0,2.3975,610.233,2409.82,2407.83,2.3975,1.48242
1212.0,2.4002,610.398,2414.24,2412.26,2.39496,1.47988
1215.0,2.39014,610.563,2418.66,2416.68,2.39379,1.47871
1218.0,2.38438,610.728,2423.08,2421.1,2.38802,1.47294
1221.0,2.39236,610.893,2427.5,2425.51,2.38973,1.47465
1224.0,2.38667,611.057,2431.92,2429.93,2.38667,1.47159
1227.0,2.38511,611.222,2436.33,2434.34,2.37933,1.46425
1230.0,2.37792,611.387,2440.74,2438.75,2.37779,1.46271
1233.0,2.37403,611.552,2445.15,2443.15,2.37403,1.45895
1236.0,2.37068,611.717,2449.56,2447.56,2.37239,1.45731
1239.0,2.37103,611.882,2453.96,2451.96,2.37065,1.45557
1242.0,2.36575,612.046,2458.36,2456.36,2.36754,1.45246
1245.0,2.36851,612.211,2462.76,2460.75,2.36754,1.45246
1248.0,2.36348,612.376,2467.16,2465.15,2.36479,1.44971
1251.0,2.35815,612.541,2471.55,2469.54,2.36085,1.44577
1254.0,2.36356,612.706,2475.95,2473.93,2.35947,1.44439
1257.0,2.35236,612.871,2480.34,2478.32,2.35612,1.44104
1260.0,2.35339,613.036,2484.72,2482.71,2.35339,1.43831
1263.0,2.34735,613.2,2489.11,2487.09,2.34856,1.43348
1266.0,2.34481,613.365,2493.49,2491.47,2.34498,1.4299
1269.0,2.34064,613.53,2497.87,2495.85,2.34064,1.42556
1272.0,2.33932,613.695,2502.25,2500.22,2.33883,1.42375
1275.0,2.33891,613.86,2506.63,2504.6,2.33724,1.42216
1278.0,2.32739,614.025,2511,2508.97,2.33299,1.41791
1281.0,2.32964,614.189,2515.37,2513.34,2.32964,1.41456
1284.0,2.32456,614.354,2519.74,2517.7,2.32585,1.41077
1287.0,2.33878,614.519,2524.1,2522.07,2.32585,1.41077
1290.0,2.31936,614.684,2528.47,2526.43,2.31841,1.40333
1293.0,2.31846,614.849,2532.83,2530.79,2.31637,1.40129
1296.0,2.31464,615.014,2537.19,2535.15,2.31426,1.39918
1299.0,2.31318,615.178,2541.55,2539.5,2.30803,1.39295
1302.0,2.3076,615.343,2545.9,2543.85,2.30485,1.38977
1305.0,2.30396,615.508,2550.25,2548.2,2.30136,1.38628
1308.0,2.2941,615.673,2554.6,2552.55,2.29844,1.38336
1311.0,2.29737,615.838,2558.95,2556.9,2.2971,1.38202
1314.0,2.29349,616.003,2563.3,2561.24,2.28974,1.37466
1317.0,2.28241,616.167,2567.64,2565.58,2.28241,1.36733
1320.0,2.28541,616.332,2571.98,2569.92,2.28022,1.36514
1323.0,2.28977,616.497,2576.32,2574.26,2.27984,1.36476
1326.0,2.27421,616.662,2580.65,2578.59,2.27485,1.35977
1329.0,2.27285,616.827,2584.99,2582.92,2.27092,1.35584
1332.0,2.26531,616.992,2589.32,2587.25,2.26531,1.35023
1335.0,2.26532,617.157,2593.65,2591.58,2.26261,1.34753
1338.0,2.2612,617.321,2597.97,2595.9,2.2612,1.34612
1341.0,2.25309,617.486,2602.3,2600.22,2.2581,1.34302
1344.0,2.25399,617.651,2606.62,2604.54,2.25555,1.34047
1347.0,2.25261,617.816,2610.94,2608.86,2.25261,1.33753
1350.0,2.2516,617.981,2615.26,2613.18,2.25132,1.33624
1353.0,2.24199,618.146,2619.57,2617.49,2.2443,1.32922
1356.0,2.24098,618.31,2623.89,2621.8,2.23977,1.32469
1359.0,2.23401,618.475,2628.2,2626.11,2.23718,1.3221
1362.0,2.23288,618.64,2632.5,2630.42,2.23288,1.3178
1365.0,2.22562,618.805,2636.81,2634.72,2.22729,1.31221
1368.0,2.22558,618.97,2641.11,2639.02,2.22709,1.31201
1371.0,2.21986,619.135,2645.42,2643.32,2.21986,1.30478
1374.0,2.21625,619.299,2649.71,2647.62,2.21625,1.30117
1377.0,2.21526,619.464,2654.01,2651.91,2.21526,1.30018
1380.0,2.21394,619.629,2658.31,2656.21,2.21087,1.29579
1383.0,2.20845,619.794,2662.6,2660.5,2.20845,1.29337
1386.0,2.20395,619.959,2666.89,2664.78,2.20518,1.2901
1389.0,2.20472,620.124,2671.18,2669.07,2.20472,1.28964
1392.0,2.21123,620.288,2675.46,2673.35,2.19728,1.2822
1395.0,2.19627,620.453,2679.74,2677.63,2.19627,1.28119
1398.0,2.19122,620.618,2684.03,2681.91,2.1914,1.27632
1401.0,2.18692,620.783,2688.3,2686.19,2.18789,1.27281
1404.0,2.18451,620.948,2692.58,2690.46,2.1868,1.27172
1407.0,2.18241,621.113,2696.85,2694.74,2.18476,1.26968
1410.0,2.18452,621.278,2701.13,2699.01,2.18452,1.26944
1413.0,2.18024,621.442,2705.4,2703.27,2.18024,1.26516
1416.0,2.17873,621.607,2709.66,2707.54,2.17795,1.26287
1419.0,2.17742,621.772,2713.93,2711.8,2.17742,1.26234
1422.0,2.17902,621.937,2718.19,2716.06,2.17391,1.25883
1425.0,2.16684,622.102,2722.45,2720.32,2.1722,1.25712
1428.0,2.1727,622.267,2726.71,2724.58,2.1722,1.25712
1431.0,2.16258,622.431,2730.96,2728.83,2.1631,1.24802
1434.0,2.16767,622.596,2735.22,2733.08,2.16263,1.24755
1437.0,2.16315,622.761,2739.47,2737.33,2.16002,1.24494
1440.0,2.15606,622.926,2743.72,2741.58,2.15794,1.24286
1443.0,2.15402,623.091,2747.97,2745.82,2.15495,1.23987
1446.0,2.15186,623.256,2752.21,2750.07,2.15356,1.23848
1449.0,2.14892,623.42,2756.45,2754.31,2.14911,1.23403
1452.0,2.14422,623.585,2760.69,2758.55,2.14422,1.22914
1455.0,2.144,623.75,2764.93,2762.78,2.14292,1.22784
1458.0,2.13897,623.915,2769.17,2767.01,2.13897,1.22389
1461.0,2.14798,624.08,2773.4,2771.25,2.13861,1.22353
1464.0,2.13528,624.245,2777.63,2775.48,2.13809,1.22301
1467.0,2.12956,624.409,2781.86,2779.7,2.12927,1.21419
1470.0,2.1251,624.574,2786.09,2783.93,2.12893,1.21385
1473.0,2.12601,624.739,2790.31,2788.15,2.12694,1.21186
1476.0,2.12671,624.904,2794.53,2792.37,2.12636,1.21128
1479.0,2.12745,625.069,2798.75,2796.59,2.12215,1.20707
1482.0,2.12126,625.234,2802.97,2800.8,2.12116,1.20608
1485.0,2.11625,625.399,2807.19,2805.02,2.11625,1.20117
1488.0,2.1132,625.563,2811.4,2809.23,2.1141,1.19902
1491.0,2.11199,625.728,2815.61,2813.44,2.11291,1.19783
1494.0,2.10769,625.893,2819.82,2817.65,2.10769,1.19261
1497.0,2.10378,626.058,2824.03,2821.85,2.10555,1.19047
1500.0,2.10271,626.223,2828.23,2826.05,2.10401,1.18893
1503.0,2.09945,626.388,2832.44,2830.25,2.09988,1.1848
1506.0,2.09664,626.552,2836.64,2834.45,2.09988,1.1848
1509.0,2.0948,626.717,2840.83,2838.65,2.0948,1.17972
1512.0,2.09326,626.882,2845.03,2842.84,2.09093,1.17585
1515.0,2.1046,627.047,2849.22,2847.03,2.09122,1.17614
1518.0,2.08474,627.212,2853.41,2851.22,2.08628,1.1712
1521.0,2.08715,627.377,2857.6,2855.41,2.08475,1.16967
1524.0,2.08469,627.541,2861.79,2859.59,2.08424,1.16916
1527.0,2.08283,627.706,2865.97,2863.78,2.08283,1.16775
1530.0,2.08,627.871,2870.16,2867.96,2.07985,1.16477
1533.0,2.07859,628.036,2874.34,2872.14,2.07859,1.16351
1536.0,2.07775,628.201,2878.52,2876.31,2.07775,1.16267
1539.0,2.07466,628.366,2882.69,2880.49,2.07864,1.16356
1542.0,2.07114,628.53,2886.87,2884.66,2.07424,1.15916
1545.0,2.075,628.695,2891.04,2888.83,2.07208,1.157
1548.0,2.0721,628.86,2895.21,2892.99,2.06925,1.15417
1551.0,2.06511,629.025,2899.37,2897.16,2.06511,1.15003
1554.0,2.05911,629.19,2903.54,2901.32,2.06449,1.14941
1557.0,2.05922,629.355,2907.7,2905.48,2.05922,1.14414
1560.0,2.05586,629.52,2911.86,2909.64,2.05686,1.14178
1563.0,2.05091,629.684,2916.02,2913.8,2.05418,1.1391
1566.0,2.04615,629.849,2920.18,2917.95,2.04889,1.13381
1569.0,2.04166,630.014,2924.33,2922.1,2.0436,1.12852
1572.0,2.04208,630.179,2928.48,2926.25,2.04765,1.13257
1575.0,2.04396,630.344,2932.63,2930.4,2.04396,1.12888
1578.0,2.03971,630.509,2936.78,2934.55,2.04066,1.12558
1581.0,2.03882,630.673,2940.93,2938.69,2.03984,1.12476
1584.0,2.04284,630.838,2945.07,2942.83,2.04097,1.12589
1587.0,2.04037,631.003,2949.21,2946.97,2.04181,1.12673
1590.0,2.04727,631.168,2953.35,2951.11,2.05309,1.13801
1593.0,2.06176,631.333,2957.49,2955.24,2.06322,1.14814
1596.0,2.09802,631.498,2961.62,2959.38,2.09802,1.18294
1599.0,2.11883,631.662,2965.75,2963.51,2.11883,1.20375
1602.0,2.14149,631.827,2969.88,2967.64,2.13971,1.22463
1605.0,2.14083,631.992,2974.01,2971.76,2.13852,1.22344
1608.0,2.1043,632.157,2978.14,2975.89,2.1043,1.18922
1611.0,2.06525,632.322,2982.26,2980.01,2.06525,1.15017
1614.0,2.02588,632.487,2986.38,2984.13,2.02588,1.1108
1617.0,2.00446,632.651,2990.5,2988.24,2.00446,1.08938
1620.0,1.99451,632.816,2994.62,2992.36,1.99701,1.08193
1623.0,2.00488,632.981,2998.73,2996.47,2.00488,1.0898
1626.0,2.01514,633.146,3002.85,3000.58,2.01514,1.10006
1629.0,2.01657,633.311,3006.96,3004.69,2.01657,1.10149
1632.0,2.00883,633.476,3011.07,3008.8,2.00883,1.09375
1635.0,1.97844,633.641,3015.17,3012.91,1.97844,1.06336
1638.0,1.95669,633.805,3019.28,3017.01,1.95669,1.04161
1641.0,1.94271,633.97,3023.38,3021.11,1.94271,1.02763
1644.0,1.93239,634.135,3027.48,3025.21,1.93239,1.01731
1647.0,1.92835,634.3,3031.58,3029.3,1.92835,1.01327
1650.0,1.92356,634.465,3035.68,3033.4,1.92251,1.00743
1653.0,1.92175,634.63,3039.77,3037.49,1.91965,1.00457
1656.0,1.91031,634.794,3043.86,3041.58,1.91082,0.995744
1659.0,1.90823,634.959,3047.95,3045.67,1.90888,0.993804
1662.0,1.90327,635.124,3052.04,3049.75,1.90451,0.989434
1665.0,1.89813,635.289,3056.12,3053.84,1.89742,0.982344
1668.0,1.89388,635.454,3060.21,3057.92,1.8945,0.979424
1671.0,1.89343,635.619,3064.29,3062,1.89339,0.978314
1674.0,1.89288,635.783,3068.37,3066.07,1.88857,0.973494
1677.0,1.88035,635.948,3072.44,3070.15,1.88035,0.965274
1680.0,1.87554,636.113,3076.52,3074.22,1.87554,0.960464
1683.0,1.87211,636.278,3080.59,3078.29,1.87291,0.957834
1686.0,1.86752,636.443,3084.66,3082.36,1.8687,0.953624
1689.0,1.8652,636.608,3088.73,3086.43,1.8652,0.950124
1692.0,1.85924,636.772,3092.8,3090.49,1.85924,0.944164
1695.0,1.85362,636.937,3096.86,3094.55,1.85362,0.938544
1698.0,1.85356,637.102,3100.92,3098.61,1.85185,0.936774
1701.0,1.84864,637.267,3104.98,3102.67,1.85062,0.935544
1704.0,1.84149,637.432,3109.04,3106.73,1.8475,0.932424
1707.0,1.84374,637.597,3113.1,3110.78,1.84429,0.929214
1710.0,1.84166,637.762,3117.15,3114.83,1.84166,0.926584
1713.0,1.83515,637.926,3121.2,3118.88,1.84088,0.925804
1716.0,1.83945,638.091,3125.25,3122.93,1.83882,0.923744
1719.0,1.8391,638.256,3129.3,3126.98,1.83725,0.922174
1722.0,1.83778,638.421,3133.34,3131.02,1.83596,0.920884
1725.0,1.8344,638.586,3137.39,3135.06,1.8344,0.919324
1728.0,1.8267,638.751,3141.43,3139.1,1.82786,0.912784
1731.0,1.82724,638.915,3145.47,3143.14,1.82724,0.912164
1734.0,1.8213,639.08,3149.51,3147.17,1.8233,0.908224
1737.0,1.81699,639.245,3153.54,3151.21,1.8193,0.904224
1740.0,1.81509,639.41,3157.57,3155.24,1.81186,0.896784
1743.0,1.80171,639.575,3161.6,3159.27,1.80383,0.888754
1746.0,1.79678,639.74,3165.63,3163.29,1.79678,0.881704
1749.0,1.79626,639.904,3169.66,3167.32,1.79237,0.877294
1752.0,1.78777,640.069,3173.68,3171.34,1.78777,0.872694
1755.0,1.78208,640.234,3177.71,3175.36,1.7827,0.867624
1758.0,1.77603,640.399,3181.73,3179.38,1.77936,0.864284
1761.0,1.77469,640.564,3185.75,3183.4,1.77469,0.859614
1764.0,1.76569,640.729,3189.76,3187.41,1.77056,0.855484
1767.0,1.76329,640.893,3193.78,3191.42,1.76572,0.850644
1770.0,1.75984,641.058,3197.79,3195.43,1.76029,0.845214
1773.0,1.75747,641.223,3201.8,3199.44,1.75572,0.840644
1776.0,1.75288,641.388,3205.81,3203.45,1.75288,0.837804
1779.0,1.74933,641.553,3209.81,3207.45,1.74933,0.834254
1782.0,1.7478,641.718,3213.82,3211.45,1.7478,0.832724
1785.0,1.74072,641.883,3217.82,3215.45,1.74072,0.825644
1788.0,1.73911,642.047,3221.82,3219.45,1.73543,0.820354
1791.0,1.72915,642.212,3225.82,3223.45,1.73004,0.814964
1794.0,1.72781,642.377,3229.81,3227.44,1.72874,0.813664
1797.0,1.72096,642.542,3233.81,3231.43,1.72128,0.806204
1800.0,1.72034,642.707,3237.8,3235.42,1.72128,0.806204
1803.0,1.71806,642.872,3241.79,3239.41,1.71823,0.803154
1806.0,1.71708,643.036,3245.77,3243.4,1.71578,0.800704
1809.0,1.72124,643.201,3249.76,3247.38,1.70985,0.794774
1812.0,1.70455,643.366,3253.74,3251.36,1.70478,0.789704
1815.0,1.70087,643.531,3257.72,3255.34,1.70153,0.786454
1818.0,1.69477,643.696,3261.7,3259.32,1.69761,0.782534
1821.0,1.69171,643.861,3265.68,3263.29,1.69568,0.780604
1824.0,1.68814,644.025,3269.66,3267.27,1.68974,0.774664
1827.0,1.68641,644.19,3273.63,3271.24,1.68704,0.771964
1830.0,1.68925,644.355,3277.6,3275.21,1.68618,0.771104
1833.0,1.68092,644.52,3281.57,3279.18,1.68092,0.765844
1836.0,1.67674,644.685,3285.54,3283.14,1.67594,0.760864
1839.0,1.67407,644.85,3289.5,3287.1,1.6738,0.758724
1842.0,1.66541,645.015,3293.47,3291.07,1.6656,0.750524
1845.0,1.66409,645.179,3297.43,3295.02,1.66409,0.749014
1848.0,1.66266,645.344,3301.39,3298.98,1.66194,0.746864
1851.0,1.65634,645.509,3305.34,3302.94,1.65656,0.741484
1854.0,1.65752,645.674,3309.3,3306.89,1.65268,0.737604
1857.0,1.64861,645.839,3313.25,3310.84,1.65028,0.735204
1860.0,1.6488,646.004,3317.2,3314.79,1.64846,0.733384
1863.0,1.64355,646.168,3321.15,3318.74,1.64386,0.728784
1866.0,1.64093,646.333,3325.1,3322.68,1.64093,0.725854
1869.0,1.63866,646.498,3329.04,3326.63,1.63768,0.722604
1872.0,1.63757,646.663,3332.98,3330.57,1.63474,0.719664
1875.0,1.63367,646.828,3336.93,3334.51,1.63192,0.716844
1878.0,1.63153,646.993,3340.86,3338.44,1.63084,0.715764
1881.0,1.62328,647.157,3344.8,3342.38,1.6245,0.709424
1884.0,1.61773,647.322,3348.74,3346.31,1.61934,0.704264
1887.0,1.62177,647.487,3352.67,3350.24,1.61825,0.703174
1890.0,1.61427,647.652,3356.6,3354.17,1.61427,0.699194
1893.0,1.61029,647.817,3360.53,3358.1,1.61029,0.695214
1896.0,1.60995,647.982,3364.46,3362.02,1.60749,0.692414
1899.0,1.60381,648.146,3368.38,3365.95,1.60473,0.689654
1902.0,1.59807,648.311,3372.3,3369.87,1.59851,0.683434
1905.0,1.59814,648.476,3376.22,3373.79,1.59814,0.683064
1908.0,1.59318,648.641,3380.14,3377.7,1.59288,0.677804
1911.0,1.59001,648.806,3384.06,3381.62,1.59001,0.674934
1914.0,1.58412,648.971,3387.98,3385.53,1.58579,0.670714
1917.0,1.58236,649.136,3391.89,3389.44,1.58249,0.667414
1920.0,1.58155,649.3,3395.8,3393.35,1.58249,0.667414
1923.0,1.57434,649.465,3399.71,3397.26,1.57434,0.659264
1926.0,1.57174,649.63,3403.62,3401.16,1.57174,0.656664
1929.0,1.56801,649.795,3407.52,3405.07,1.56743,0.652354
1932.0,1.57024,649.96,3411.42,3408.97,1.56699,0.651914
1935.0,1.56027,650.125,3415.32,3412.87,1.56029,0.645214
1938.0,1.5596,650.289,3419.22,3416.76,1.55659,0.641514
1941.0,1.55112,650.454,3423.12,3420.66,1.55175,0.636674
1944.0,1.556,650.619,3427.02,3424.55,1.5507,0.635624
1947.0,1.54373,650.784,3430.91,3428.44,1.54691,0.631834
1950.0,1.54157,650.949,3434.8,3432.33,1.5427,0.627624
1953.0,1.54167,651.114,3438.69,3436.22,1.54146,0.626384
1956.0,1.53402,651.278,3442.58,3440.11,1.539,0.623924
1959.0,1.53215,651.443,3446.46,3443.99,1.53236,0.617284
1962.0,1.52964,651.608,3450.34,3447.87,1.52964,0.614564
1965.0,1.52342,651.773,3454.23,3451.75,1.52374,0.608664
1968.0,1.52776,651.938,3458.11,3455.63,1.52301,0.607934
1971.0,1.51523,652.103,3461.98,3459.5,1.51834,0.603264
1974.0,1.51793,652.267,3465.86,3463.38,1.51522,0.600144
1977.0,1.51243,652.432,3469.73,3467.25,1.51213,0.597054
1980.0,1.5108,652.597,3473.6,3471.12,1.51003,0.594954
1983.0,1.50535,652.762,3477.47,3474.99,1.50535,0.590274
1986.0,1.50097,652.927,3481.34,3478.85,1.50097,0.585894
1989.0,1.49699,653.092,3485.21,3482.72,1.4994,0.584324
1992.0,1.49435,653.257,3489.07,3486.58,1.49777,0.582694
1995.0,1.49329,653.421,3492.93,3490.44,1.4932,0.578124
1998.0,1.49068,653.586,3496.79,3494.3,1.49032,0.575244
2001.0,1.48591,653.751,3500.65,3498.15,1.4856,0.570524
2004.0,1.48304,653.916,3504.51,3502.01,1.48223,0.567154
2007.0,1.47739,654.081,3508.36,3505.86,1.48032,0.565244
2010.0,1.47411,654.246,3512.21,3509.71,1.47552,0.560444
2013.0,1.47532,654.41,3516.06,3513.56,1.47488,0.559804
2016.0,1.46728,654.575,3519.91,3517.4,1.46944,0.554364
2019.0,1.46766,654.74,3523.76,3521.25,1.46735,0.552274
2022.0,1.46174,654.905,3527.6,3525.09,1.46432,0.549244
2025.0,1.46155,655.07,3531.44,3528.93,1.46105,0.545974
2028.0,1.45671,655.235,3535.28,3532.77,1.45639,0.541314
2031.0,1.45387,655.399,3539.12,3536.61,1.45293,0.537854
2034.0,1.45162,655.564,3542.96,3540.44,1.45162,0.536544
2037.0,1.4461,655.729,3546.79,3544.27,1.4461,0.531024
2040.0,1.44546,655.894,3550.63,3548.1,1.4436,0.528524
2043.0,1.44368,656.059,3554.46,3551.93,1.44354,0.528464
2046.0,1.43911,656.224,3558.28,3555.76,1.43876,0.523684
2047.0,1.43876,656.279,3559.56,3557.04,1.43876,0.523684