File: data/processed/processed_data/2024-10-11/2024-10-11_palmiticacidpowder_n_n_n_solid_10000_0_5.csv
Pixels #,Intensity (a.u.),Wavelength (nm),Raman shift (cm-1),Raman shift (cm-1) adjusted,Filtered Intensity (a.u.),Baselined Filtered Intensity (a.u.)
0.0,0.821706,543.803,407.968,406.929,0.820942,0.0196935
3.0,0.819388,543.967,413.541,412.499,0.820942,0.0196935
6.0,0.820983,544.132,419.11,418.065,0.820995,0.0197465
9.0,0.823277,544.297,424.676,423.628,0.821741,0.0204925
12.0,0.826103,544.462,430.238,429.188,0.820022,0.0187735
15.0,0.823973,544.627,435.797,434.744,0.820022,0.0187735
18.0,0.822228,544.792,441.353,440.297,0.819854,0.0186055
21.0,0.820674,544.957,446.905,445.847,0.818752,0.0175035
24.0,0.818148,545.121,452.454,451.393,0.818309,0.0170605
27.0,0.820873,545.286,457.999,456.936,0.819442,0.0181935
30.0,0.82045,545.451,463.542,462.476,0.82045,0.0192015
33.0,0.821381,545.616,469.08,468.012,0.822,0.0207515
36.0,0.819989,545.781,474.616,473.545,0.820712,0.0194635
39.0,0.850525,545.946,480.148,479.075,0.821857,0.0206085
42.0,0.81832,546.11,485.677,484.601,0.820001,0.0187525
45.0,0.8208,546.275,491.202,490.124,0.820001,0.0187525
48.0,0.822771,546.44,496.725,495.643,0.821544,0.0202955
51.0,0.820969,546.605,502.243,501.16,0.821276,0.0200275
54.0,0.832584,546.77,507.759,506.672,0.822556,0.0213075
57.0,0.82,546.935,513.271,512.182,0.82,0.0187515
60.0,0.822762,547.099,518.78,517.688,0.819806,0.0185575
63.0,0.818251,547.264,524.285,523.191,0.820586,0.0193375
66.0,0.820252,547.429,529.788,528.691,0.821819,0.0205705
69.0,0.820196,547.594,535.287,534.187,0.821819,0.0205705
72.0,0.820069,547.759,540.782,539.68,0.820069,0.0188205
75.0,0.818854,547.924,546.275,545.17,0.818854,0.0176055
78.0,0.820804,548.088,551.763,550.656,0.819693,0.0184445
81.0,0.82204,548.253,557.249,556.139,0.820204,0.0189555
84.0,0.820204,548.418,562.732,561.619,0.820204,0.0189555
87.0,0.81909,548.583,568.211,567.096,0.819933,0.0186845
90.0,0.821147,548.748,573.686,572.569,0.821147,0.0198985
93.0,0.818902,548.913,579.159,578.039,0.819657,0.0184085
96.0,0.81856,549.078,584.628,583.506,0.818636,0.0173875
99.0,0.819206,549.242,590.094,588.969,0.819059,0.0178105
102.0,0.819641,549.407,595.557,594.429,0.819059,0.0178105
105.0,0.819452,549.572,601.016,599.886,0.819452,0.0182035
108.0,0.818479,549.737,606.472,605.339,0.818412,0.0171635
111.0,0.816667,549.902,611.925,610.79,0.816792,0.0155435
114.0,0.817224,550.067,617.375,616.237,0.81776,0.0165115
117.0,0.816982,550.231,622.821,621.68,0.816995,0.0157465
120.0,0.816135,550.396,628.264,627.121,0.817128,0.0158795
123.0,0.816525,550.561,633.704,632.558,0.818452,0.0172035
126.0,0.817177,550.726,639.14,637.992,0.818452,0.0172035
129.0,0.817807,550.891,644.574,643.423,0.818128,0.0168795
132.0,0.82037,551.056,650.004,648.85,0.818283,0.0170345
135.0,0.817483,551.22,655.431,654.274,0.817356,0.0161075
138.0,0.815754,551.385,660.854,659.695,0.817356,0.0161075
141.0,0.816213,551.55,666.274,665.113,0.818685,0.0174365
144.0,0.819175,551.715,671.691,670.528,0.818809,0.0175605
147.0,0.816182,551.88,677.105,675.939,0.816858,0.0156095
150.0,0.817188,552.045,682.516,681.347,0.817188,0.0159395
153.0,0.816282,552.209,687.923,686.752,0.816282,0.0150335
156.0,0.818013,552.374,693.327,692.153,0.816564,0.0153155
159.0,0.827114,552.539,698.728,697.552,0.816581,0.0153325
162.0,0.815495,552.704,704.126,702.947,0.816581,0.0153325
165.0,0.815471,552.869,709.52,708.339,0.816129,0.0148805
168.0,0.815571,553.034,714.912,713.727,0.816129,0.0148805
171.0,0.81447,553.199,720.3,719.113,0.816779,0.0155305
174.0,0.816356,553.363,725.684,724.495,0.816779,0.0155305
177.0,0.813312,553.528,731.066,729.874,0.814325,0.0130765
180.0,0.817088,553.693,736.444,735.25,0.817088,0.0158395
183.0,0.816166,553.858,741.82,740.623,0.817792,0.0165435
186.0,0.817716,554.023,747.192,745.992,0.817792,0.0165435
189.0,0.814906,554.188,752.561,751.359,0.814986,0.0137375
192.0,0.817921,554.352,757.926,756.722,0.814986,0.0137375
195.0,0.815685,554.517,763.289,762.082,0.815685,0.0144365
198.0,0.815372,554.682,768.648,767.438,0.815372,0.0141235
201.0,0.81441,554.847,774.004,772.792,0.81441,0.0131615
204.0,0.815008,555.012,779.357,778.142,0.815008,0.0137595
207.0,0.81495,555.177,784.706,783.489,0.81495,0.0137015
210.0,0.812852,555.341,790.053,788.833,0.814192,0.0129435
213.0,0.81598,555.506,795.396,794.174,0.81598,0.0147315
216.0,0.816449,555.671,800.737,799.512,0.816449,0.0152005
219.0,0.813006,555.836,806.074,804.846,0.815767,0.0145185
222.0,0.813561,556.001,811.407,810.178,0.815303,0.0140545
225.0,0.817018,556.166,816.738,815.506,0.815489,0.0142405
228.0,0.814173,556.33,822.066,820.831,0.816197,0.0149485
231.0,0.815512,556.495,827.39,826.153,0.816392,0.0151435
234.0,0.816616,556.66,832.711,831.472,0.816616,0.0153675
237.0,0.813833,556.825,838.029,836.787,0.816406,0.0151575
240.0,0.814077,556.99,843.344,842.1,0.816406,0.0151575
243.0,0.81475,557.155,848.656,847.409,0.816402,0.0151535
246.0,0.817037,557.32,853.965,852.715,0.817037,0.0157885
249.0,0.832103,557.484,859.27,858.018,0.816989,0.0157405
252.0,0.816186,557.649,864.572,863.318,0.816329,0.0150805
255.0,0.814918,557.814,869.872,868.615,0.816329,0.0150805
258.0,0.814844,557.979,875.168,873.908,0.816221,0.0149725
261.0,0.819383,558.144,880.461,879.199,0.817044,0.0157955
264.0,0.818085,558.309,885.751,884.486,0.819992,0.0187435
267.0,0.826615,558.473,891.037,889.77,0.821547,0.0202985
270.0,0.823539,558.638,896.321,895.051,0.822631,0.0213825
273.0,0.829347,558.803,901.601,900.329,0.82251,0.0212615
276.0,0.820147,558.968,906.879,905.604,0.819254,0.0180055
279.0,0.818485,559.133,912.153,910.876,0.817525,0.0162765
282.0,0.818216,559.298,917.424,916.145,0.817063,0.0158145
285.0,0.816059,559.462,922.692,921.41,0.816059,0.0148105
288.0,0.812985,559.627,927.957,926.673,0.814258,0.0130095
291.0,0.815053,559.792,933.219,931.932,0.815053,0.0138045
294.0,0.8152,559.957,938.478,937.188,0.8152,0.0139515
297.0,0.814858,560.122,943.733,942.441,0.815897,0.0146485
300.0,0.815119,560.287,948.986,947.691,0.816233,0.0149845
303.0,0.81325,560.452,954.235,952.938,0.81357,0.0123215
306.0,0.813852,560.616,959.482,958.182,0.813848,0.0125995
309.0,0.815309,560.781,964.725,963.423,0.814136,0.0128875
312.0,0.812608,560.946,969.965,968.661,0.812608,0.0113595
315.0,0.813032,561.111,975.202,973.896,0.815033,0.0137845
318.0,0.813273,561.276,980.436,979.127,0.813273,0.0120245
321.0,0.811139,561.441,985.667,984.356,0.813019,0.0117705
324.0,0.810904,561.605,990.895,989.581,0.811969,0.0107205
327.0,0.812911,561.77,996.12,994.803,0.811969,0.0107205
330.0,0.812598,561.935,1001.34,1000.02,0.811789,0.0105405
333.0,0.810551,562.1,1006.56,1005.24,0.811532,0.0102835
336.0,0.812365,562.265,1011.78,1010.45,0.812365,0.0111165
339.0,0.813131,562.43,1016.99,1015.66,0.813131,0.0118825
342.0,0.810456,562.594,1022.2,1020.87,0.811178,0.00992949
345.0,0.811118,562.759,1027.4,1026.07,0.811334,0.0100855
348.0,0.809986,562.924,1032.61,1031.27,0.811951,0.0107025
351.0,0.813568,563.089,1037.81,1036.47,0.812674,0.0114255
354.0,0.81114,563.254,1043.01,1041.67,0.812273,0.0110245
357.0,0.813521,563.419,1048.2,1046.86,0.813521,0.0122725
360.0,0.818762,563.583,1053.39,1052.05,0.818762,0.0175135
363.0,0.829537,563.748,1058.58,1057.23,0.827549,0.0263005
366.0,0.830343,563.913,1063.77,1062.42,0.828714,0.0274655
369.0,0.8296,564.078,1068.95,1067.6,0.828089,0.0268405
372.0,0.819053,564.243,1074.13,1072.77,0.819053,0.0178045
375.0,0.812995,564.408,1079.3,1077.95,0.813741,0.0124925
378.0,0.81916,564.573,1084.48,1083.12,0.812628,0.0113795
381.0,0.814547,564.737,1089.65,1088.28,0.814439,0.0131905
384.0,0.813891,564.902,1094.81,1093.45,0.814473,0.0132245
387.0,0.813295,565.067,1099.98,1098.61,0.814323,0.0130745
390.0,0.814579,565.232,1105.14,1103.77,0.813798,0.0125495
393.0,0.811147,565.397,1110.3,1108.93,0.811147,0.00989849
396.0,0.813488,565.562,1115.45,1114.08,0.812685,0.0114365
399.0,0.82079,565.726,1120.6,1119.23,0.82079,0.0195415
402.0,0.827226,565.891,1125.75,1124.37,0.826011,0.0247625
405.0,0.839226,566.056,1130.9,1129.52,0.826011,0.0247625
408.0,0.823669,566.221,1136.04,1134.66,0.823154,0.0219055
411.0,0.812883,566.386,1141.18,1139.8,0.814012,0.0127635
414.0,0.809639,566.551,1146.32,1144.93,0.80965,0.00840149
417.0,0.812244,566.715,1151.45,1150.06,0.80965,0.00840149
420.0,0.808591,566.88,1156.58,1155.19,0.808963,0.00771449
423.0,0.807521,567.045,1161.71,1160.32,0.808334,0.00708549
426.0,0.811158,567.21,1166.84,1165.44,0.809487,0.00823849
429.0,0.808171,567.375,1171.96,1170.56,0.809487,0.00823849
432.0,0.811986,567.54,1177.08,1175.68,0.811986,0.0107375
435.0,0.809664,567.704,1182.19,1180.79,0.809664,0.00841549
438.0,0.806426,567.869,1187.31,1185.9,0.808105,0.00685649
441.0,0.808703,568.034,1192.42,1191.01,0.808105,0.00685649
444.0,0.807467,568.199,1197.52,1196.11,0.805632,0.00438349
447.0,0.80963,568.364,1202.63,1201.21,0.805632,0.00438349
450.0,0.807447,568.529,1207.73,1206.31,0.80574,0.00449149
453.0,0.814743,568.694,1212.83,1211.41,0.805489,0.00424049
456.0,0.806445,568.858,1217.92,1216.5,0.806445,0.00519651
459.0,0.808362,569.023,1223.02,1221.59,0.808362,0.00711352
462.0,0.804342,569.188,1228.11,1226.68,0.8055,0.00425153
465.0,0.804716,569.353,1233.19,1231.76,0.804716,0.00346755
468.0,0.805223,569.518,1238.28,1236.85,0.805223,0.00397459
471.0,0.806105,569.683,1243.36,1241.92,0.806105,0.00485664
474.0,0.807164,569.847,1248.43,1247,0.805492,0.00424369
477.0,0.804741,570.012,1253.51,1252.07,0.805466,0.00421776
480.0,0.80399,570.177,1258.58,1257.14,0.805693,0.00444484
483.0,0.808666,570.342,1263.65,1262.21,0.806804,0.00555593
486.0,0.810263,570.507,1268.72,1267.27,0.807332,0.00608402
489.0,0.808651,570.672,1273.78,1272.33,0.80688,0.00563212
492.0,0.80775,570.836,1278.84,1277.39,0.80775,0.00650222
495.0,0.814596,571.001,1283.9,1282.44,0.816521,0.0152733
498.0,0.821229,571.166,1288.95,1287.5,0.821229,0.0199814
501.0,0.830395,571.331,1294,1292.55,0.830145,0.0288975
504.0,0.825646,571.496,1299.05,1297.59,0.825646,0.0243986
507.0,0.820348,571.661,1304.1,1302.63,0.820348,0.0191007
510.0,0.809596,571.825,1309.14,1307.67,0.812575,0.0113278
513.0,0.808543,571.99,1314.18,1312.71,0.808543,0.00729592
516.0,0.805316,572.155,1319.22,1317.75,0.807837,0.00659002
519.0,0.808947,572.32,1324.25,1322.78,0.808947,0.00770012
522.0,0.803214,572.485,1329.28,1327.81,0.805324,0.00407722
525.0,0.806667,572.65,1334.31,1332.83,0.805056,0.00380933
528.0,0.803912,572.815,1339.33,1337.86,0.803943,0.00269646
531.0,0.799891,572.979,1344.36,1342.88,0.802572,0.00132559
534.0,0.803859,573.144,1349.38,1347.89,0.803859,0.00261273
537.0,0.805928,573.309,1354.39,1352.91,0.803198,0.00195189
540.0,0.803033,573.474,1359.41,1357.92,0.803033,0.00178705
543.0,0.80422,573.639,1364.42,1362.93,0.805256,0.00401022
546.0,0.805522,573.804,1369.43,1367.93,0.805256,0.0040104
549.0,0.804218,573.968,1374.43,1372.94,0.804218,0.0029726
552.0,0.808793,574.133,1379.43,1377.94,0.804826,0.00358081
555.0,0.801794,574.298,1384.43,1382.93,0.803931,0.00268605
558.0,0.802533,574.463,1389.43,1387.93,0.803798,0.0025533
561.0,0.804162,574.628,1394.42,1392.92,0.804047,0.00280256
564.0,0.803324,574.793,1399.41,1397.91,0.804047,0.00280283
567.0,0.808508,574.957,1404.4,1402.89,0.807007,0.00576313
570.0,0.809575,575.122,1409.39,1407.87,0.809393,0.00814942
573.0,0.827494,575.287,1414.37,1412.85,0.815231,0.0139877
576.0,0.820379,575.452,1419.35,1417.83,0.818395,0.017152
579.0,0.824101,575.617,1424.32,1422.81,0.819015,0.0177723
582.0,0.822389,575.782,1429.3,1427.78,0.823767,0.0225246
585.0,0.842701,575.946,1434.27,1432.74,0.827749,0.0265069
588.0,0.829686,576.111,1439.24,1437.71,0.827088,0.0258462
591.0,0.824273,576.276,1444.2,1442.67,0.825243,0.0240015
594.0,0.822915,576.441,1449.16,1447.63,0.822915,0.0216738
597.0,0.82098,576.606,1454.12,1452.59,0.82098,0.0197391
600.0,0.827535,576.771,1459.08,1457.54,0.821998,0.0207574
603.0,0.818965,576.936,1464.03,1462.5,0.821998,0.0207577
606.0,0.82571,577.1,1468.98,1467.44,0.818223,0.016983
609.0,0.812593,577.265,1473.93,1472.39,0.812658,0.0114183
612.0,0.809515,577.43,1478.88,1477.33,0.809949,0.0087096
615.0,0.805976,577.595,1483.82,1482.27,0.805599,0.00435989
618.0,0.806249,577.76,1488.76,1487.21,0.804982,0.00374319
621.0,0.805036,577.925,1493.7,1492.14,0.805036,0.0037975
624.0,0.804781,578.089,1498.63,1497.08,0.804226,0.00298781
627.0,0.800038,578.254,1503.56,1502.01,0.80115,-8.78575e-05
630.0,0.8308,578.419,1508.49,1506.93,0.801505,0.000267473
633.0,0.800162,578.584,1513.41,1511.85,0.801505,0.000267808
636.0,0.801223,578.749,1518.34,1516.77,0.801458,0.000221143
639.0,0.800517,578.914,1523.26,1521.69,0.801458,0.000221476
642.0,0.800361,579.078,1528.17,1526.61,0.800361,-0.000875195
645.0,0.80048,579.243,1533.09,1531.52,0.80048,-0.000755876
648.0,0.798454,579.408,1538,1536.43,0.798454,-0.00278156
651.0,0.799153,579.573,1542.91,1541.33,0.799422,-0.00181328
654.0,0.799601,579.738,1547.82,1546.24,0.800011,-0.001224
657.0,0.801815,579.903,1552.72,1551.14,0.801815,0.000580263
660.0,0.799803,580.067,1557.62,1556.04,0.800186,-0.00104847
663.0,0.800739,580.232,1562.52,1560.93,0.800186,-0.00104821
666.0,0.809433,580.397,1567.41,1565.83,0.799281,-0.00195296
669.0,0.800493,580.562,1572.3,1570.72,0.800278,-0.000955726
672.0,0.875935,580.727,1577.19,1575.6,0.79936,-0.0018735
675.0,0.799444,580.892,1582.08,1580.49,0.79838,-0.00285328
678.0,0.79916,581.057,1586.96,1585.37,0.79811,-0.00312309
681.0,0.799074,581.221,1591.84,1590.25,0.799074,-0.00215892
684.0,0.798217,581.386,1596.72,1595.12,0.798528,-0.00270477
687.0,0.800242,581.551,1601.6,1600,0.799026,-0.00220664
690.0,0.799529,581.716,1606.47,1604.87,0.799339,-0.00189353
693.0,0.797343,581.881,1611.34,1609.73,0.79872,-0.00251244
696.0,0.798749,582.046,1616.21,1614.6,0.798749,-0.00248336
699.0,0.799444,582.21,1621.07,1619.46,0.80287,0.00163769
702.0,0.805828,582.375,1625.93,1624.32,0.799579,-0.00165325
705.0,0.80092,582.54,1630.79,1629.18,0.80092,-0.000312211
708.0,0.804116,582.705,1635.65,1634.03,0.801302,6.98235e-05
711.0,0.801851,582.87,1640.5,1638.88,0.801039,-0.000193134
714.0,0.800219,583.035,1645.35,1643.73,0.80072,-0.000512092
717.0,0.799257,583.199,1650.2,1648.57,0.80072,-0.000512056
720.0,0.801818,583.364,1655.04,1653.42,0.800823,-0.000409026
723.0,0.797759,583.529,1659.89,1658.26,0.798543,-0.00268901
726.0,0.800702,583.694,1664.73,1663.1,0.800702,-0.000530001
729.0,0.798885,583.859,1669.56,1667.93,0.798179,-0.003053
732.0,0.798485,584.024,1674.4,1672.76,0.79813,-0.00310203
735.0,0.798623,584.188,1679.23,1677.59,0.798623,-0.00260908
738.0,0.79903,584.353,1684.06,1682.42,0.799191,-0.00204116
741.0,0.79796,584.518,1688.88,1687.24,0.798238,-0.00299424
744.0,0.797981,584.683,1693.71,1692.06,0.798016,-0.00321634
747.0,0.800678,584.848,1698.53,1696.88,0.800678,-0.000554459
750.0,0.797293,585.013,1703.35,1701.7,0.797793,-0.00343959
753.0,0.799716,585.178,1708.16,1706.51,0.799716,-0.00151674
756.0,0.798721,585.342,1712.97,1711.32,0.798721,-0.00251191
759.0,0.796877,585.507,1717.78,1716.13,0.797965,-0.00326811
762.0,0.797781,585.672,1722.59,1720.93,0.797781,-0.00345233
765.0,0.797508,585.837,1727.39,1725.73,0.797508,-0.00372559
768.0,0.797798,586.002,1732.2,1730.53,0.798139,-0.00309489
771.0,0.799567,586.167,1737,1735.33,0.798743,-0.00249121
774.0,0.801888,586.331,1741.79,1740.12,0.798743,-0.00249155
777.0,0.797791,586.496,1746.58,1744.91,0.797791,-0.0034439
780.0,0.797007,586.661,1751.38,1749.7,0.797007,-0.00422829
783.0,0.851334,586.826,1756.16,1754.49,0.797066,-0.00416971
786.0,0.801024,586.991,1760.95,1759.27,0.796504,-0.00473215
789.0,0.800498,587.156,1765.73,1764.05,0.798074,-0.00316262
792.0,0.799257,587.32,1770.51,1768.83,0.798074,-0.00316312
795.0,0.800804,587.485,1775.29,1773.61,0.796848,-0.00438965
798.0,0.809187,587.65,1780.06,1778.38,0.798931,-0.0023072
801.0,0.797938,587.815,1784.84,1783.15,0.797591,-0.00364778
804.0,0.797607,587.98,1789.61,1787.91,0.797071,-0.00416838
807.0,0.79686,588.145,1794.37,1792.68,0.796428,-0.00481202
810.0,0.79612,588.309,1799.14,1797.44,0.79612,-0.0051207
813.0,0.797277,588.474,1803.9,1802.2,0.797668,-0.00357342
816.0,0.797457,588.639,1808.66,1806.96,0.797457,-0.00378515
819.0,0.796656,588.804,1813.41,1811.71,0.796656,-0.00458692
822.0,0.796339,588.969,1818.17,1816.46,0.796339,-0.00490471
825.0,0.798489,589.134,1822.92,1821.21,0.797594,-0.00365054
828.0,0.79958,589.299,1827.66,1825.96,0.797827,-0.00341841
831.0,0.79764,589.463,1832.41,1830.7,0.79764,-0.00360629
834.0,0.796483,589.628,1837.15,1835.44,0.797864,-0.00338322
837.0,0.796474,589.793,1841.89,1840.18,0.797864,-0.00338417
840.0,0.796711,589.958,1846.63,1844.91,0.796711,-0.00453815
843.0,0.799077,590.123,1851.36,1849.65,0.798239,-0.00301117
846.0,0.801508,590.288,1856.1,1854.37,0.803416,0.00216479
849.0,0.796054,590.452,1860.83,1859.1,0.799019,-0.00223325
852.0,0.796686,590.617,1865.55,1863.83,0.798373,-0.00288032
855.0,0.798516,590.782,1870.28,1868.55,0.798516,-0.00273841
858.0,0.797823,590.947,1875,1873.27,0.797823,-0.00343253
861.0,0.79877,591.112,1879.72,1877.98,0.79877,-0.00248666
864.0,0.797024,591.277,1884.43,1882.7,0.799951,-0.00130682
867.0,0.812259,591.441,1889.15,1887.41,0.799347,-0.001912
870.0,0.799643,591.606,1893.86,1892.12,0.798729,-0.00253118
873.0,0.802662,591.771,1898.57,1896.83,0.797567,-0.00369438
876.0,0.798759,591.936,1903.27,1901.53,0.79736,-0.0039026
879.0,0.797918,592.101,1907.98,1906.23,0.797918,-0.00334584
882.0,0.797695,592.266,1912.68,1910.93,0.798789,-0.00247611
885.0,0.796647,592.43,1917.38,1915.62,0.798789,-0.0024774
888.0,0.800679,592.595,1922.07,1920.32,0.798887,-0.0023807
891.0,0.798396,592.76,1926.76,1925.01,0.79779,-0.00347903
894.0,0.798041,592.925,1931.45,1929.7,0.798041,-0.00322938
897.0,0.798804,593.09,1936.14,1934.38,0.798676,-0.00259576
900.0,0.800691,593.255,1940.83,1939.06,0.798277,-0.00299617
903.0,0.797396,593.42,1945.51,1943.74,0.798108,-0.0031666
906.0,0.802211,593.584,1950.19,1948.42,0.801659,0.000382946
909.0,0.79988,593.749,1954.86,1953.1,0.800644,-0.000633512
912.0,0.798984,593.914,1959.54,1957.77,0.798984,-0.00229498
915.0,0.799178,594.079,1964.21,1962.44,0.798255,-0.00302547
918.0,0.799098,594.244,1968.88,1967.11,0.79765,-0.00363198
921.0,0.799278,594.409,1973.55,1971.77,0.799257,-0.00202652
924.0,0.798538,594.573,1978.21,1976.43,0.799257,-0.00202808
927.0,0.799714,594.738,1982.87,1981.09,0.799714,-0.00157266
930.0,0.796678,594.903,1987.53,1985.75,0.799398,-0.00189026
933.0,0.80079,595.068,1992.19,1990.4,0.80079,-0.000499865
936.0,0.79614,595.233,1996.84,1995.05,0.799083,-0.00220848
939.0,0.802742,595.398,2001.49,1999.7,0.800809,-0.000484119
942.0,0.797706,595.562,2006.14,2004.35,0.798801,-0.00249376
945.0,0.798816,595.727,2010.79,2008.99,0.798801,-0.00249543
948.0,0.799978,595.892,2015.43,2013.63,0.799799,-0.00149912
951.0,0.801443,596.057,2020.07,2018.27,0.802337,0.00103718
954.0,0.799222,596.222,2024.71,2022.91,0.800043,-0.00125852
957.0,0.798645,596.387,2029.35,2027.54,0.798645,-0.00265823
960.0,0.798893,596.551,2033.98,2032.17,0.798893,-0.00241196
963.0,0.798744,596.716,2038.61,2036.8,0.802391,0.00108429
966.0,0.798482,596.881,2043.24,2041.43,0.798965,-0.00234346
969.0,0.803042,597.046,2047.86,2046.05,0.799488,-0.00182223
972.0,0.800719,597.211,2052.49,2050.67,0.800917,-0.000394998
975.0,0.804747,597.376,2057.11,2055.29,0.800917,-0.000396775
978.0,0.800393,597.541,2061.73,2059.91,0.799706,-0.00160955
981.0,0.797257,597.705,2066.34,2064.52,0.799723,-0.00159434
984.0,0.801704,597.87,2070.95,2069.13,0.801704,0.000384854
987.0,0.802488,598.035,2075.56,2073.74,0.802488,0.00116705
990.0,0.800242,598.2,2080.17,2078.34,0.799454,-0.00186875
993.0,0.799427,598.365,2084.78,2082.95,0.799427,-0.00189756
996.0,0.805958,598.53,2089.38,2087.55,0.800058,-0.0012684
999.0,0.806965,598.694,2093.98,2092.15,0.801107,-0.000221239
1002.0,0.800941,598.859,2098.58,2096.74,0.800561,-0.000769085
1005.0,0.800439,599.024,2103.17,2101.33,0.800439,-0.000892936
1008.0,0.80444,599.189,2107.77,2105.93,0.801148,-0.000185799
1011.0,0.802107,599.354,2112.36,2110.51,0.801148,-0.000187657
1014.0,0.800284,599.519,2116.94,2115.1,0.800284,-0.00105351
1017.0,0.800396,599.683,2121.53,2119.68,0.800659,-0.00068037
1020.0,0.801457,599.848,2126.11,2124.26,0.80335,0.00200877
1023.0,0.801306,600.013,2130.69,2128.84,0.802398,0.00105491
1026.0,0.80008,600.178,2135.27,2133.41,0.800751,-0.000593942
1029.0,0.802609,600.343,2139.84,2137.99,0.801729,0.000382204
1032.0,0.802668,600.508,2144.42,2142.56,0.802668,0.00131935
1035.0,0.799345,600.672,2148.99,2147.13,0.802827,0.00147651
1038.0,0.79997,600.837,2153.55,2151.69,0.801988,0.000635673
1041.0,0.802262,601.002,2158.12,2156.25,0.803219,0.00186483
1044.0,0.812005,601.167,2162.68,2160.81,0.803219,0.001863
1047.0,0.798804,601.332,2167.24,2165.37,0.801464,0.000106178
1050.0,0.80202,601.497,2171.8,2169.93,0.80202,0.000660348
1053.0,0.802089,601.662,2176.35,2174.48,0.802089,0.000727525
1056.0,0.802037,601.826,2180.9,2179.03,0.80208,0.000716713
1059.0,0.803609,601.991,2185.45,2183.58,0.802731,0.00136591
1062.0,0.802318,602.156,2190,2188.12,0.802364,0.000997118
1065.0,0.801377,602.321,2194.55,2192.67,0.802431,0.00106234
1068.0,0.803503,602.486,2199.09,2197.21,0.802983,0.00161256
1071.0,0.803456,602.651,2203.63,2201.74,0.803186,0.0018138
1074.0,0.804056,602.815,2208.17,2206.28,0.803492,0.00211806
1077.0,0.801932,602.98,2212.7,2210.81,0.802211,0.000835335
1080.0,0.803437,603.145,2217.23,2215.34,0.803437,0.00205962
1083.0,0.806395,603.31,2221.76,2219.87,0.806395,0.00501593
1086.0,0.801974,603.475,2226.29,2224.4,0.806429,0.00504823
1089.0,0.80459,603.64,2230.82,2228.92,0.80459,0.00320754
1092.0,0.803807,603.804,2235.34,2233.44,0.802437,0.00105286
1095.0,0.809498,603.969,2239.86,2237.96,0.802437,0.00105119
1098.0,0.805939,604.134,2244.38,2242.47,0.802555,0.00116752
1101.0,0.80751,604.299,2248.89,2246.99,0.804437,0.00304785
1104.0,0.803312,604.464,2253.41,2251.5,0.804437,0.00304619
1107.0,0.80313,604.629,2257.92,2256,0.80313,0.00173754
1110.0,0.802514,604.794,2262.42,2260.51,0.804197,0.00280291
1113.0,0.805923,604.958,2266.93,2265.01,0.805171,0.00377528
1116.0,0.802438,605.123,2271.43,2269.51,0.80447,0.00307267
1119.0,0.808131,605.288,2275.93,2274.01,0.807026,0.00562707
1122.0,0.806102,605.453,2280.43,2278.51,0.804378,0.00297747
1125.0,0.805819,605.618,2284.93,2283,0.804378,0.00297588
1128.0,0.804932,605.783,2289.42,2287.49,0.803985,0.00258129
1131.0,0.805165,605.947,2293.91,2291.98,0.803985,0.00257972
1134.0,0.807231,606.112,2298.4,2296.47,0.80511,0.00370317
1137.0,0.808578,606.277,2302.88,2300.95,0.806542,0.00513364
1140.0,0.804857,606.442,2307.37,2305.43,0.805593,0.00418311
1143.0,0.802997,606.607,2311.85,2309.91,0.805082,0.0036706
1146.0,0.806646,606.772,2316.33,2314.39,0.806572,0.00515911
1149.0,0.804568,606.936,2320.8,2318.86,0.804568,0.00315362
1152.0,0.805773,607.101,2325.28,2323.33,0.803734,0.00231816
1155.0,0.809872,607.266,2329.75,2327.8,0.804767,0.0033497
1158.0,0.806746,607.431,2334.22,2332.27,0.805205,0.00378627
1161.0,0.806064,607.596,2338.68,2336.73,0.805874,0.00445385
1164.0,0.805288,607.761,2343.15,2341.19,0.804398,0.00297643
1167.0,0.811973,607.925,2347.61,2345.65,0.804398,0.00297505
1170.0,0.803505,608.09,2352.07,2350.11,0.803505,0.00208067
1173.0,0.808941,608.255,2356.52,2354.57,0.806401,0.00497531
1176.0,0.804937,608.42,2360.98,2359.02,0.806401,0.00497395
1179.0,0.804352,608.585,2365.43,2363.47,0.805319,0.00389061
1182.0,0.804344,608.75,2369.88,2367.91,0.804469,0.00303928
1185.0,0.80368,608.915,2374.33,2372.36,0.80756,0.00612898
1188.0,0.80644,609.079,2378.77,2376.8,0.80644,0.00500768
1191.0,0.806053,609.244,2383.21,2381.24,0.806053,0.00461939
1194.0,0.807631,609.409,2387.65,2385.68,0.807631,0.00619611
1197.0,0.806297,609.574,2392.09,2390.12,0.808263,0.00682683
1200.0,0.809077,609.739,2396.52,2394.55,0.809077,0.00763955
1203.0,0.806025,609.904,2400.96,2398.98,0.8052,0.00376128
1206.0,0.807416,610.068,2405.39,2403.41,0.807416,0.00597603
1209.0,0.806744,610.233,2409.82,2407.83,0.806744,0.00530279
1212.0,0.806902,610.398,2414.24,2412.26,0.806902,0.00545954
1215.0,0.807005,610.563,2418.66,2416.68,0.807005,0.0055613
1218.0,0.805722,610.728,2423.08,2421.1,0.806225,0.00478006
1221.0,0.809503,610.893,2427.5,2425.51,0.807217,0.00577082
1224.0,0.806595,611.057,2431.92,2429.93,0.806563,0.00511559
1227.0,0.807399,611.222,2436.33,2434.34,0.805936,0.00448736
1230.0,0.807243,611.387,2440.74,2438.75,0.805936,0.00448614
1233.0,0.807541,611.552,2445.15,2443.15,0.806601,0.00514993
1236.0,0.805844,611.717,2449.56,2447.56,0.806478,0.00502572
1239.0,0.806913,611.882,2453.96,2451.96,0.806948,0.00549452
1242.0,0.80866,612.046,2458.36,2456.36,0.806948,0.00549331
1245.0,0.811174,612.211,2462.76,2460.75,0.806616,0.00516011
1248.0,0.807338,612.376,2467.16,2465.15,0.808754,0.0072969
1251.0,0.807774,612.541,2471.55,2469.54,0.807774,0.00631569
1254.0,0.807187,612.706,2475.95,2473.93,0.807168,0.00570849
1257.0,0.808525,612.871,2480.34,2478.32,0.808525,0.00706428
1260.0,0.808652,613.036,2484.72,2482.71,0.808652,0.00719008
1263.0,0.806248,613.2,2489.11,2487.09,0.806248,0.00478489
1266.0,0.808556,613.365,2493.49,2491.47,0.808556,0.0070917
1269.0,0.808537,613.53,2497.87,2495.85,0.808423,0.00695751
1272.0,0.807768,613.695,2502.25,2500.22,0.807768,0.00630133
1275.0,0.811876,613.86,2506.63,2504.6,0.807285,0.00581715
1278.0,0.806673,614.025,2511,2508.97,0.807109,0.00563996
1281.0,0.806767,614.189,2515.37,2513.34,0.807109,0.00563878
1284.0,0.807873,614.354,2519.74,2517.7,0.807716,0.0062446
1287.0,0.824702,614.519,2524.1,2522.07,0.809127,0.00765442
1290.0,0.808356,614.684,2528.47,2526.43,0.808356,0.00688223
1293.0,0.811482,614.849,2532.83,2530.79,0.80966,0.00818505
1296.0,0.811017,615.014,2537.19,2535.15,0.809887,0.00841087
1299.0,0.809957,615.178,2541.55,2539.5,0.809245,0.00776768
1302.0,0.811111,615.343,2545.9,2543.85,0.808571,0.0070925
1305.0,0.810007,615.508,2550.25,2548.2,0.808571,0.00709132
1308.0,0.807922,615.673,2554.6,2552.55,0.808981,0.00750013
1311.0,0.808641,615.838,2558.95,2556.9,0.809488,0.00800595
1314.0,0.809285,616.003,2563.3,2561.24,0.809488,0.00800477
1317.0,0.810188,616.167,2567.64,2565.58,0.810188,0.00870359
1320.0,0.814591,616.332,2571.98,2569.92,0.810398,0.0089124
1323.0,0.822668,616.497,2576.32,2574.26,0.810231,0.00874422
1326.0,0.812246,616.662,2580.65,2578.59,0.810461,0.00897304
1329.0,0.811358,616.827,2584.99,2582.92,0.811133,0.00964385
1332.0,0.81133,616.992,2589.32,2587.25,0.810738,0.00924767
1335.0,0.814592,617.157,2593.65,2591.58,0.80969,0.00819849
1338.0,0.814154,617.321,2597.97,2595.9,0.812718,0.0112253
1341.0,0.811332,617.486,2602.3,2600.22,0.812718,0.0112241
1344.0,0.81156,617.651,2606.62,2604.54,0.811586,0.0100909
1347.0,0.814762,617.816,2610.94,2608.86,0.813633,0.0121368
1350.0,0.818749,617.981,2615.26,2613.18,0.813452,0.0119546
1353.0,0.812466,618.146,2619.57,2617.49,0.812466,0.0109674
1356.0,0.811303,618.31,2623.89,2621.8,0.811696,0.0101962
1359.0,0.811876,618.475,2628.2,2626.11,0.811876,0.010375
1362.0,0.811184,618.64,2632.5,2630.42,0.811184,0.00968184
1365.0,0.810247,618.805,2636.81,2634.72,0.811016,0.00951266
1368.0,0.811917,618.97,2641.11,2639.02,0.812539,0.0110345
1371.0,0.810694,619.135,2645.42,2643.32,0.811558,0.0100523
1374.0,0.81152,619.299,2649.71,2647.62,0.811558,0.0100511
1377.0,0.814783,619.464,2654.01,2651.91,0.814783,0.0132749
1380.0,0.815915,619.629,2658.31,2656.21,0.815915,0.0144057
1383.0,0.812293,619.794,2662.6,2660.5,0.812293,0.0107826
1386.0,0.813858,619.959,2666.89,2664.78,0.813858,0.0123464
1389.0,0.815241,620.124,2671.18,2669.07,0.815241,0.0137282
1392.0,0.823653,620.288,2675.46,2673.35,0.812391,0.010877
1395.0,0.814617,620.453,2679.74,2677.63,0.814617,0.0131018
1398.0,0.812896,620.618,2684.03,2681.91,0.814361,0.0128446
1401.0,0.8137,620.783,2688.3,2686.19,0.8137,0.0121825
1404.0,0.812049,620.948,2692.58,2690.46,0.813953,0.0124343
1407.0,0.812497,621.113,2696.85,2694.74,0.814559,0.0130391
1410.0,0.8177,621.278,2701.13,2699.01,0.816174,0.0146529
1413.0,0.817846,621.442,2705.4,2703.27,0.817846,0.0163237
1416.0,0.820313,621.607,2709.66,2707.54,0.819983,0.0184595
1419.0,0.821335,621.772,2713.93,2711.8,0.819983,0.0184584
1422.0,0.827926,621.937,2718.19,2716.06,0.823265,0.0217392
1425.0,0.822065,622.102,2722.45,2720.32,0.822279,0.020752
1428.0,0.831039,622.267,2726.71,2724.58,0.824855,0.0233268
1431.0,0.821621,622.431,2730.96,2728.83,0.82329,0.0217606
1434.0,0.823276,622.596,2735.22,2733.08,0.82307,0.0215395
1437.0,0.822899,622.761,2739.47,2737.33,0.820596,0.0190643
1440.0,0.817552,622.926,2743.72,2741.58,0.818867,0.0173341
1443.0,0.818961,623.091,2747.97,2745.82,0.818961,0.0174269
1446.0,0.818332,623.256,2752.21,2750.07,0.818332,0.0167967
1449.0,0.81423,623.42,2756.45,2754.31,0.816035,0.0144985
1452.0,0.81409,623.585,2760.69,2758.55,0.814576,0.0130384
1455.0,0.815529,623.75,2764.93,2762.78,0.814883,0.0133442
1458.0,0.812021,623.915,2769.17,2767.01,0.814416,0.012876
1461.0,0.827122,624.08,2773.4,2771.25,0.815508,0.0139668
1464.0,0.813601,624.245,2777.63,2775.48,0.814895,0.0133526
1467.0,0.813198,624.409,2781.86,2779.7,0.814101,0.0125574
1470.0,0.812512,624.574,2786.09,2783.93,0.814954,0.0134093
1473.0,0.81463,624.739,2790.31,2788.15,0.815577,0.0140311
1476.0,0.816138,624.904,2794.53,2792.37,0.816138,0.0145909
1479.0,0.817541,625.069,2798.75,2796.59,0.817541,0.0159927
1482.0,0.816445,625.234,2802.97,2800.8,0.816649,0.0150995
1485.0,0.817496,625.399,2807.19,2805.02,0.817496,0.0159453
1488.0,0.816011,625.563,2811.4,2809.23,0.818471,0.0169192
1491.0,0.819429,625.728,2815.61,2813.44,0.821078,0.019525
1494.0,0.820031,625.893,2819.82,2817.65,0.82204,0.0204858
1497.0,0.821082,626.058,2824.03,2821.85,0.822307,0.0207516
1500.0,0.827683,626.223,2828.23,2826.05,0.827998,0.0264414
1503.0,0.845448,626.388,2832.44,2830.25,0.845448,0.0438902
1506.0,0.869257,626.552,2836.64,2834.45,0.869257,0.0676981
1509.0,0.891369,626.717,2840.83,2838.65,0.891369,0.0898089
1512.0,0.912084,626.882,2845.03,2842.84,0.912084,0.110523
1515.0,0.932807,627.047,2849.22,2847.03,0.916397,0.114835
1518.0,0.913579,627.212,2853.41,2851.22,0.913579,0.112015
1521.0,0.909313,627.377,2857.6,2855.41,0.909313,0.107748
1524.0,0.907384,627.541,2861.79,2859.59,0.907414,0.105848
1527.0,0.910444,627.706,2865.97,2863.78,0.910444,0.108877
1530.0,0.926037,627.871,2870.16,2867.96,0.926037,0.124469
1533.0,0.955667,628.036,2874.34,2872.14,0.955667,0.154097
1536.0,0.974959,628.201,2878.52,2876.31,0.974959,0.173388
1539.0,0.980074,628.366,2882.69,2880.49,0.979524,0.177952
1542.0,0.963697,628.53,2886.87,2884.66,0.963697,0.162124
1545.0,0.948446,628.695,2891.04,2888.83,0.948446,0.146872
1548.0,0.919637,628.86,2895.21,2892.99,0.919637,0.118061
1551.0,0.90828,629.025,2899.37,2897.16,0.90828,0.106703
1554.0,0.89732,629.19,2903.54,2901.32,0.8989,0.0973221
1557.0,0.890408,629.355,2907.7,2905.48,0.890791,0.0892119
1560.0,0.881834,629.52,2911.86,2909.64,0.88463,0.0830498
1563.0,0.879799,629.684,2916.02,2913.8,0.879895,0.0783136
1566.0,0.87731,629.849,2920.18,2917.95,0.877437,0.0758544
1569.0,0.875131,630.014,2924.33,2922.1,0.876492,0.0749082
1572.0,0.876092,630.179,2928.48,2926.25,0.876492,0.074907
1575.0,0.873012,630.344,2932.63,2930.4,0.873012,0.0714259
1578.0,0.865268,630.509,2936.78,2934.55,0.866188,0.0646007
1581.0,0.85885,630.673,2940.93,2938.69,0.85885,0.0572615
1584.0,0.851714,630.838,2945.07,2942.83,0.851714,0.0501243
1587.0,0.846569,631.003,2949.21,2946.97,0.848683,0.0470921
1590.0,0.838918,631.168,2953.35,2951.11,0.841818,0.0402259
1593.0,0.840839,631.333,2957.49,2955.24,0.840731,0.0391378
1596.0,0.851326,631.498,2961.62,2959.38,0.841415,0.0398206
1599.0,0.834776,631.662,2965.75,2963.51,0.834776,0.0331804
1602.0,0.833323,631.827,2969.88,2967.64,0.833323,0.0317262
1605.0,0.828969,631.992,2974.01,2971.76,0.828326,0.026728
1608.0,0.821436,632.157,2978.14,2975.89,0.822966,0.0213668
1611.0,0.817303,632.322,2982.26,2980.01,0.817933,0.0163327
1614.0,0.818396,632.487,2986.38,2984.13,0.817933,0.0163315
1617.0,0.816334,632.651,2990.5,2988.24,0.817903,0.0163003
1620.0,0.815599,632.816,2994.62,2992.36,0.816162,0.0145581
1623.0,0.813444,632.981,2998.73,2996.47,0.816162,0.0145569
1626.0,0.81725,633.146,3002.85,3000.58,0.815979,0.0143727
1629.0,0.813801,633.311,3006.96,3004.69,0.815009,0.0134016
1632.0,0.815366,633.476,3011.07,3008.8,0.815366,0.0137574
1635.0,0.81297,633.641,3015.17,3012.91,0.813793,0.0121832
1638.0,0.812783,633.805,3019.28,3017.01,0.812783,0.011172
1641.0,0.812985,633.97,3023.38,3021.11,0.812932,0.0113198
1644.0,0.813324,634.135,3027.48,3025.21,0.812932,0.0113186
1647.0,0.812579,634.3,3031.58,3029.3,0.811715,0.0101005
1650.0,0.81299,634.465,3035.68,3033.4,0.81299,0.0113743
1653.0,0.813108,634.63,3039.77,3037.49,0.813108,0.0114911
1656.0,0.813235,634.794,3043.86,3041.58,0.813235,0.0116169
1659.0,0.811788,634.959,3047.95,3045.67,0.812233,0.0106137
1662.0,0.813636,635.124,3052.04,3049.75,0.812682,0.0110615
1665.0,0.812211,635.289,3056.12,3053.84,0.812211,0.0105894
1668.0,0.811459,635.454,3060.21,3057.92,0.811756,0.0101332
1671.0,0.810336,635.619,3064.29,3062,0.812159,0.010535
1674.0,0.818372,635.783,3068.37,3066.07,0.812252,0.0106268
1677.0,0.808293,635.948,3072.44,3070.15,0.810799,0.00917263
1680.0,0.811299,636.113,3076.52,3074.22,0.809719,0.00809145
1683.0,0.80983,636.278,3080.59,3078.29,0.809588,0.00795926
1686.0,0.810419,636.443,3084.66,3082.36,0.809588,0.00795808
1689.0,0.809682,636.608,3088.73,3086.43,0.810329,0.0086979
1692.0,0.80984,636.772,3092.8,3090.49,0.80984,0.00820771
1695.0,0.808229,636.937,3096.86,3094.55,0.808229,0.00659553
1698.0,0.812015,637.102,3100.92,3098.61,0.811941,0.0103063
1701.0,0.808695,637.267,3104.98,3102.67,0.811146,0.00951017
1704.0,0.806314,637.432,3109.04,3106.73,0.809819,0.00818198
1707.0,0.811716,637.597,3113.1,3110.78,0.810283,0.0086448
1710.0,0.809541,637.762,3117.15,3114.83,0.809541,0.00790162
1713.0,0.807041,637.926,3121.2,3118.88,0.809427,0.00778643
1716.0,0.808564,638.091,3125.25,3122.93,0.808783,0.00714125
1719.0,0.809545,638.256,3129.3,3126.98,0.80929,0.00764707
1722.0,0.811959,638.421,3133.34,3131.02,0.80929,0.00764589
1725.0,0.81036,638.586,3137.39,3135.06,0.808164,0.0065187
1728.0,0.809332,638.751,3141.43,3139.1,0.80853,0.00688352
1731.0,0.807554,638.915,3145.47,3143.14,0.809376,0.00772834
1734.0,0.806356,639.08,3149.51,3147.17,0.808209,0.00656015
1737.0,0.810712,639.245,3153.54,3151.21,0.808209,0.00655897
1740.0,0.809879,639.41,3157.57,3155.24,0.80798,0.00632879
1743.0,0.806845,639.575,3161.6,3159.27,0.807328,0.0056756
1746.0,0.808037,639.74,3165.63,3163.29,0.808142,0.00648842
1749.0,0.81142,639.904,3169.66,3167.32,0.809225,0.00757024
1752.0,0.808775,640.069,3173.68,3171.34,0.807859,0.00620306
1755.0,0.806412,640.234,3177.71,3175.36,0.807859,0.00620187
1758.0,0.808055,640.399,3181.73,3179.38,0.808055,0.00639669
1761.0,0.806679,640.564,3185.75,3183.4,0.806862,0.00520251
1764.0,0.807301,640.729,3189.76,3187.41,0.807301,0.00564032
1767.0,0.806865,640.893,3193.78,3191.42,0.809832,0.00817014
1770.0,0.806271,641.058,3197.79,3195.43,0.807737,0.00607396
1773.0,0.809208,641.223,3201.8,3199.44,0.807386,0.00572178
1776.0,0.807676,641.388,3205.81,3203.45,0.807386,0.00572061
1779.0,0.805237,641.553,3209.81,3207.45,0.806914,0.00524744
1782.0,0.808184,641.718,3213.82,3211.45,0.808184,0.0065163
1785.0,0.807051,641.883,3217.82,3215.45,0.808145,0.00647615
1788.0,0.807945,642.047,3221.82,3219.45,0.806735,0.005065
1791.0,0.805972,642.212,3225.82,3223.45,0.806036,0.00436485
1794.0,0.806556,642.377,3229.81,3227.44,0.806556,0.0048837
1797.0,0.806296,642.542,3233.81,3231.43,0.806439,0.00476555
1800.0,0.806693,642.707,3237.8,3235.42,0.806439,0.00476441
1803.0,0.808028,642.872,3241.79,3239.41,0.807356,0.00568027
1806.0,0.809963,643.036,3245.77,3243.4,0.807356,0.00567913
1809.0,0.818417,643.201,3249.76,3247.38,0.80707,0.00539199
1812.0,0.806243,643.366,3253.74,3251.36,0.806243,0.00456386
1815.0,0.806872,643.531,3257.72,3255.34,0.809257,0.00757674
1818.0,0.804705,643.696,3261.7,3259.32,0.807607,0.00592562
1821.0,0.806828,643.861,3265.68,3263.29,0.80754,0.00585751
1824.0,0.807345,644.025,3269.66,3267.27,0.807345,0.00566141
1827.0,0.805038,644.19,3273.63,3271.24,0.807037,0.00535231
1830.0,0.808631,644.355,3277.6,3275.21,0.806853,0.00516722
1833.0,0.806346,644.52,3281.57,3279.18,0.805606,0.00391914
1836.0,0.804613,644.685,3285.54,3283.14,0.805663,0.00397507
1839.0,0.807168,644.85,3289.5,3287.1,0.806392,0.00470302
1842.0,0.805655,645.015,3293.47,3291.07,0.806359,0.00466899
1845.0,0.805232,645.179,3297.43,3295.02,0.806579,0.00488797
1848.0,0.809715,645.344,3301.39,3298.98,0.807891,0.00619896
1851.0,0.805296,645.509,3305.34,3302.94,0.806079,0.00438595
1854.0,0.810127,645.674,3309.3,3306.89,0.806079,0.00438496
1857.0,0.802941,645.839,3313.25,3310.84,0.805385,0.00368999
1860.0,0.807005,646.004,3317.2,3314.79,0.806834,0.00513803
1863.0,0.805689,646.168,3321.15,3318.74,0.807413,0.00571607
1866.0,0.804734,646.333,3325.1,3322.68,0.806614,0.00491613
1869.0,0.804632,646.498,3329.04,3326.63,0.806278,0.00457921
1872.0,0.806551,646.663,3332.98,3330.57,0.806278,0.00457829
1875.0,0.8089,646.828,3336.93,3334.51,0.804469,0.00276838
1878.0,0.808581,646.993,3340.86,3338.44,0.806128,0.00442648
1881.0,0.806001,647.157,3344.8,3342.38,0.806128,0.00442559
1884.0,0.803558,647.322,3348.74,3346.31,0.805485,0.00378171
1887.0,0.808758,647.487,3352.67,3350.24,0.806414,0.00470984
1890.0,0.806977,647.652,3356.6,3354.17,0.806977,0.00527199
1893.0,0.80558,647.817,3360.53,3358.1,0.80558,0.00387414
1896.0,0.809708,647.982,3364.46,3362.02,0.806159,0.00445231
1899.0,0.804214,648.146,3368.38,3365.95,0.806159,0.0044515
1902.0,0.803822,648.311,3372.3,3369.87,0.804698,0.0029897
1905.0,0.80552,648.476,3376.22,3373.79,0.80552,0.00381091
1908.0,0.806347,648.641,3380.14,3377.7,0.805434,0.00372413
1911.0,0.805793,648.806,3384.06,3381.62,0.805638,0.00392738
1914.0,0.803039,648.971,3387.98,3385.53,0.805638,0.00392666
1917.0,0.805695,649.136,3391.89,3389.44,0.805695,0.00398295
1920.0,0.8054,649.3,3395.8,3393.35,0.8054,0.00368726
1923.0,0.803552,649.465,3399.71,3397.26,0.80569,0.00397658
1926.0,0.802968,649.63,3403.62,3401.16,0.804472,0.00275793
1929.0,0.806714,649.795,3407.52,3405.07,0.804982,0.00326728
1932.0,0.810198,649.96,3411.42,3408.97,0.806427,0.00471164
1935.0,0.80597,650.125,3415.32,3412.87,0.805768,0.00405202
1938.0,0.808506,650.289,3419.22,3416.76,0.803643,0.00192641
1941.0,0.805307,650.454,3423.12,3420.66,0.80487,0.00315281
1944.0,0.810015,650.619,3427.02,3424.55,0.805359,0.00364124
1947.0,0.803569,650.784,3430.91,3428.44,0.805584,0.00386569
1950.0,0.804092,650.949,3434.8,3432.33,0.805975,0.00425615
1953.0,0.80571,651.114,3438.69,3436.22,0.805804,0.00408463
1956.0,0.804709,651.278,3442.58,3440.11,0.806023,0.00430312
1959.0,0.803394,651.443,3446.46,3443.99,0.804177,0.00245663
1962.0,0.802822,651.608,3450.34,3447.87,0.803706,0.00198515
1965.0,0.805304,651.773,3454.23,3451.75,0.804706,0.00298468
1968.0,0.811679,651.938,3458.11,3455.63,0.805607,0.00388525
1971.0,0.804608,652.103,3461.98,3459.5,0.805211,0.00348883
1974.0,0.804363,652.267,3465.86,3463.38,0.804363,0.00264043
1977.0,0.804559,652.432,3469.73,3467.25,0.804559,0.00283604
1980.0,0.806504,652.597,3473.6,3471.12,0.804552,0.00282868
1983.0,0.805686,652.762,3477.47,3474.99,0.803833,0.00210932
1986.0,0.804931,652.927,3481.34,3478.85,0.803967,0.00224299
1989.0,0.804403,653.092,3485.21,3482.72,0.805794,0.00406968
1992.0,0.805708,653.257,3489.07,3486.58,0.806586,0.00486138
1995.0,0.806194,653.421,3492.93,3490.44,0.806586,0.0048611
1998.0,0.805087,653.586,3496.79,3494.3,0.805559,0.00383383
2001.0,0.806639,653.751,3500.65,3498.15,0.804647,0.00292158
2004.0,0.80568,653.916,3504.51,3502.01,0.805664,0.00393835
2007.0,0.803463,654.081,3508.36,3505.86,0.806481,0.00475514
2010.0,0.804254,654.246,3512.21,3509.71,0.806259,0.00453294
2013.0,0.807274,654.41,3516.06,3513.56,0.806175,0.00444875
2016.0,0.804498,654.575,3519.91,3517.4,0.804897,0.00317057
2019.0,0.806824,654.74,3523.76,3521.25,0.804591,0.0028644
2022.0,0.804194,654.905,3527.6,3525.09,0.804585,0.00285825
2025.0,0.805121,655.07,3531.44,3528.93,0.805121,0.00339411
2028.0,0.803964,655.235,3535.28,3532.77,0.80431,0.002583
2031.0,0.805204,655.399,3539.12,3536.61,0.80431,0.00258291
2034.0,0.806025,655.564,3542.96,3540.44,0.805743,0.00401585
2037.0,0.803553,655.729,3546.79,3544.27,0.803553,0.00182579
2040.0,0.805703,655.894,3550.63,3548.1,0.805703,0.00397575
2043.0,0.808579,656.059,3554.46,3551.93,0.806055,0.00432773
2046.0,0.805371,656.224,3558.28,3555.76,0.805264,0.00353671
2047.0,0.806838,656.279,3559.56,3557.04,0.805264,0.00353671