File: data/processed/processed_data/2024-10-11/2024-10-11_calciumsulfatepowder_n_n_n_solid_10000_0_5.csv
Pixels #,Intensity (a.u.),Wavelength (nm),Raman shift (cm-1),Raman shift (cm-1) adjusted,Filtered Intensity (a.u.),Baselined Filtered Intensity (a.u.)
0.0,0.795472,543.803,407.968,406.929,0.795472,-0.00815234
3.0,0.79434,543.967,413.541,412.499,0.79556,-0.00806439
6.0,0.795943,544.132,419.11,418.065,0.795943,-0.0076815
9.0,0.797045,544.297,424.676,423.628,0.796547,-0.00707769
12.0,0.800327,544.462,430.238,429.188,0.794862,-0.00876293
15.0,0.798075,544.627,435.797,434.744,0.795065,-0.00856024
18.0,0.797427,544.792,441.353,440.297,0.795065,-0.00856062
21.0,0.796562,544.957,446.905,445.847,0.793622,-0.0100041
24.0,0.793184,545.121,452.454,451.393,0.794051,-0.00957559
27.0,0.795446,545.286,457.999,456.936,0.794997,-0.0086302
30.0,0.794905,545.451,463.542,462.476,0.795576,-0.00805189
33.0,0.796226,545.616,469.08,468.012,0.797412,-0.00621665
36.0,0.794751,545.781,474.616,473.545,0.795712,-0.00791745
39.0,0.825277,545.946,480.148,479.075,0.797534,-0.00609633
42.0,0.793596,546.11,485.677,484.601,0.79578,-0.00785125
45.0,0.796414,546.275,491.202,490.124,0.796414,-0.00721824
48.0,0.799424,546.44,496.725,495.643,0.797913,-0.0057203
51.0,0.79787,546.605,502.243,501.16,0.797913,-0.00572141
54.0,0.810272,546.77,507.759,506.672,0.799726,-0.00390957
57.0,0.798128,546.935,513.271,512.182,0.798094,-0.00554273
60.0,0.800742,547.099,518.78,517.688,0.798082,-0.00555594
63.0,0.797219,547.264,524.285,523.191,0.798824,-0.00481518
66.0,0.797685,547.429,529.788,528.691,0.800588,-0.00305248
69.0,0.798915,547.594,535.287,534.187,0.800588,-0.00305381
72.0,0.799626,547.759,540.782,539.68,0.799626,-0.00401717
75.0,0.798551,547.924,546.275,545.17,0.799059,-0.00458556
78.0,0.800561,548.088,551.763,550.656,0.799247,-0.00439899
81.0,0.801408,548.253,557.249,556.139,0.799705,-0.00394246
84.0,0.799928,548.418,562.732,561.619,0.799857,-0.00379196
87.0,0.799622,548.583,568.211,567.096,0.800067,-0.00358348
90.0,0.802096,548.748,573.686,572.569,0.801453,-0.002199
93.0,0.798686,548.913,579.159,578.039,0.799925,-0.00372854
96.0,0.800402,549.078,584.628,583.506,0.800402,-0.00325311
99.0,0.800631,549.242,590.094,588.969,0.800631,-0.00302571
102.0,0.801693,549.407,595.557,594.429,0.801307,-0.00235134
105.0,0.80224,549.572,601.016,599.886,0.80224,-0.00141998
108.0,0.802043,549.737,606.472,605.339,0.801598,-0.00206363
111.0,0.801414,549.902,611.925,610.79,0.801414,-0.0022493
114.0,0.801569,550.067,617.375,616.237,0.802629,-0.00103598
117.0,0.800911,550.231,622.821,621.68,0.801928,-0.00173866
120.0,0.800333,550.396,628.264,627.121,0.801444,-0.00222435
123.0,0.799866,550.561,633.704,632.558,0.80091,-0.00276006
126.0,0.798762,550.726,639.14,637.992,0.80091,-0.00276178
129.0,0.799483,550.891,644.574,643.423,0.799575,-0.00409854
132.0,0.802702,551.056,650.004,648.85,0.800558,-0.00311734
135.0,0.799743,551.22,655.431,654.274,0.799743,-0.00393416
138.0,0.799269,551.385,660.854,659.695,0.799942,-0.00373702
141.0,0.801121,551.55,666.274,665.113,0.803337,-0.000343907
144.0,0.803077,551.715,671.691,670.528,0.803337,-0.0003458
147.0,0.800972,551.88,677.105,675.939,0.800972,-0.0027127
150.0,0.800425,552.045,682.516,681.347,0.800764,-0.00292262
153.0,0.79892,552.209,687.923,686.752,0.79919,-0.00449856
156.0,0.800589,552.374,693.327,692.153,0.79919,-0.00450052
159.0,0.809898,552.539,698.728,697.552,0.800004,-0.00368851
162.0,0.800057,552.704,704.126,702.947,0.800033,-0.00366151
165.0,0.799012,552.869,709.52,708.339,0.799236,-0.00446054
168.0,0.799879,553.034,714.912,713.727,0.800283,-0.00341561
171.0,0.798758,553.199,720.3,719.113,0.800588,-0.00311271
174.0,0.80098,553.363,725.684,724.495,0.80098,-0.00272284
177.0,0.798198,553.528,731.066,729.874,0.799565,-0.00414
180.0,0.801985,553.693,736.444,735.25,0.80156,-0.00214719
183.0,0.800934,553.858,741.82,740.623,0.802762,-0.000947399
186.0,0.803307,554.023,747.192,745.992,0.803307,-0.000404612
189.0,0.801364,554.188,752.561,751.359,0.801763,-0.00195082
192.0,0.804264,554.352,757.926,756.722,0.801763,-0.00195304
195.0,0.802328,554.517,763.289,762.082,0.802328,-0.00139027
198.0,0.802555,554.682,768.648,767.438,0.802478,-0.00124252
201.0,0.801722,554.847,774.004,772.792,0.801722,-0.00200079
204.0,0.803461,555.012,779.357,778.142,0.803461,-0.00026407
207.0,0.802661,555.177,784.706,783.489,0.803539,-0.000188351
210.0,0.802981,555.341,790.053,788.833,0.803539,-0.000190628
213.0,0.805886,555.506,795.396,794.174,0.805886,0.0021541
216.0,0.807687,555.671,800.737,799.512,0.807687,0.00395286
219.0,0.804301,555.836,806.074,804.846,0.807428,0.00369165
222.0,0.806426,556.001,811.407,810.178,0.807772,0.00403347
225.0,0.810191,556.166,816.738,815.506,0.809789,0.00604832
228.0,0.809305,556.33,822.066,820.831,0.809827,0.00608422
231.0,0.810909,556.495,827.39,826.153,0.811641,0.00789618
234.0,0.812764,556.66,832.711,831.472,0.812764,0.00901721
237.0,0.811052,556.825,838.029,836.787,0.814112,0.0103633
240.0,0.812127,556.99,843.344,842.1,0.814112,0.0103615
243.0,0.814022,557.155,848.656,847.409,0.814551,0.0107988
246.0,0.81618,557.32,853.965,852.715,0.81618,0.0124261
249.0,0.831472,557.484,859.27,858.018,0.817194,0.0134385
252.0,0.815677,557.649,864.572,863.318,0.816142,0.0123849
255.0,0.816006,557.814,869.872,868.615,0.817061,0.0133024
258.0,0.815483,557.979,875.168,873.908,0.817223,0.013463
261.0,0.819365,558.144,880.461,879.199,0.817943,0.0141816
264.0,0.81598,558.309,885.751,884.486,0.817812,0.0140492
267.0,0.823022,558.473,891.037,889.77,0.818101,0.0143369
270.0,0.819479,558.638,896.321,895.051,0.819347,0.0155815
273.0,0.827585,558.803,901.601,900.329,0.819347,0.0155802
276.0,0.819185,558.968,906.879,905.604,0.818294,0.0145259
279.0,0.819406,559.133,912.153,910.876,0.818294,0.0145245
282.0,0.820649,559.298,917.424,916.145,0.819036,0.0152652
285.0,0.819365,559.462,922.692,921.41,0.819036,0.0152639
288.0,0.816783,559.627,927.957,926.673,0.818499,0.0147255
291.0,0.820014,559.792,933.219,931.932,0.820014,0.0162392
294.0,0.820285,559.957,938.478,937.188,0.820285,0.0165089
297.0,0.820604,560.122,943.733,942.441,0.821423,0.0176455
300.0,0.821366,560.287,948.986,947.691,0.82149,0.0177112
303.0,0.819449,560.452,954.235,952.938,0.820894,0.0171138
306.0,0.820268,560.616,959.482,958.182,0.820894,0.0171125
309.0,0.823004,560.781,964.725,963.423,0.82208,0.0182972
312.0,0.820329,560.946,969.965,968.661,0.821569,0.0177848
315.0,0.820659,561.111,975.202,973.896,0.822814,0.0190285
318.0,0.82427,561.276,980.436,979.127,0.824876,0.0210892
321.0,0.825392,561.441,985.667,984.356,0.825392,0.0216038
324.0,0.832368,561.605,990.895,989.581,0.832422,0.0286325
327.0,0.864941,561.77,996.12,994.803,0.864941,0.0611502
330.0,0.966743,561.935,1001.34,1000.02,0.966743,0.162951
333.0,1.00108,562.1,1006.56,1005.24,0.996648,0.192855
336.0,0.988052,562.265,1011.78,1010.45,0.988052,0.184257
339.0,0.925624,562.43,1016.99,1015.66,0.925624,0.121828
342.0,0.846043,562.594,1022.2,1020.87,0.846043,0.0422455
345.0,0.828532,562.759,1027.4,1026.07,0.828532,0.0247332
348.0,0.822272,562.924,1032.61,1031.27,0.823479,0.0196788
351.0,0.825248,563.089,1037.81,1036.47,0.823479,0.0196775
354.0,0.82149,563.254,1043.01,1041.67,0.82149,0.0176872
357.0,0.822003,563.419,1048.2,1046.86,0.821394,0.0175898
360.0,0.822991,563.583,1053.39,1052.05,0.822167,0.0183615
363.0,0.823651,563.748,1058.58,1057.23,0.822781,0.0189742
366.0,0.822726,563.913,1063.77,1062.42,0.822281,0.0184728
369.0,0.825071,564.078,1068.95,1067.6,0.822281,0.0184715
372.0,0.822696,564.243,1074.13,1072.77,0.822833,0.0190222
375.0,0.820953,564.408,1079.3,1077.95,0.822833,0.0190208
378.0,0.829079,564.573,1084.48,1083.12,0.822557,0.0187435
381.0,0.824288,564.737,1089.65,1088.28,0.823768,0.0199532
384.0,0.824043,564.902,1094.81,1093.45,0.824043,0.0202268
387.0,0.825106,565.067,1099.98,1098.61,0.825034,0.0212165
390.0,0.828348,565.232,1105.14,1103.77,0.828334,0.0245152
393.0,0.829076,565.397,1110.3,1108.93,0.829004,0.0251838
396.0,0.832981,565.562,1115.45,1114.08,0.831899,0.0280775
399.0,0.837856,565.726,1120.6,1119.23,0.837856,0.0340332
402.0,0.845513,565.891,1125.75,1124.37,0.845513,0.0416888
405.0,0.870621,566.056,1130.9,1129.52,0.860223,0.0563975
408.0,0.865233,566.221,1136.04,1134.66,0.860567,0.0567401
411.0,0.857372,566.386,1141.18,1139.8,0.857372,0.0535438
414.0,0.843273,566.551,1146.32,1144.93,0.843273,0.0394435
417.0,0.83469,566.715,1151.45,1150.06,0.83266,0.0288291
420.0,0.826422,566.88,1156.58,1155.19,0.826337,0.0225048
423.0,0.82394,567.045,1161.71,1160.32,0.82394,0.0201065
426.0,0.82508,567.21,1166.84,1165.44,0.823477,0.0196421
429.0,0.821922,567.375,1171.96,1170.56,0.823477,0.0196408
432.0,0.825241,567.54,1177.08,1175.68,0.825241,0.0214035
435.0,0.823902,567.704,1182.19,1180.79,0.823902,0.0200631
438.0,0.820433,567.869,1187.31,1185.9,0.822432,0.0185918
441.0,0.823264,568.034,1192.42,1191.01,0.822432,0.0185905
444.0,0.822948,568.199,1197.52,1196.11,0.82093,0.0170871
447.0,0.824366,568.364,1202.63,1201.21,0.82105,0.0172058
450.0,0.823125,568.529,1207.73,1206.31,0.821719,0.0178735
453.0,0.831031,568.694,1212.83,1211.41,0.821849,0.0180021
456.0,0.822826,568.858,1217.92,1216.5,0.822826,0.0189778
459.0,0.825278,569.023,1223.02,1221.59,0.825278,0.0214285
462.0,0.82141,569.188,1228.11,1226.68,0.822478,0.0186271
465.0,0.821291,569.353,1233.19,1231.76,0.821291,0.0174388
468.0,0.821173,569.518,1238.28,1236.85,0.821269,0.0174155
471.0,0.823207,569.683,1243.36,1241.92,0.823207,0.0193521
474.0,0.824416,569.847,1248.43,1247,0.821874,0.0180178
477.0,0.821772,570.012,1253.51,1252.07,0.822007,0.0181495
480.0,0.821602,570.177,1258.58,1257.14,0.822879,0.0190201
483.0,0.825289,570.342,1263.65,1262.21,0.822997,0.0191368
486.0,0.825204,570.507,1268.72,1267.27,0.823256,0.0193945
489.0,0.823829,570.672,1273.78,1272.33,0.821924,0.0180611
492.0,0.821711,570.836,1278.84,1277.39,0.821924,0.0180598
495.0,0.824303,571.001,1283.9,1282.44,0.824303,0.0204375
498.0,0.821339,571.166,1288.95,1287.5,0.821339,0.0174721
501.0,0.824595,571.331,1294,1292.55,0.824294,0.0204258
504.0,0.820592,571.496,1299.05,1297.59,0.821981,0.0181115
507.0,0.821773,571.661,1304.1,1302.63,0.821773,0.0179021
510.0,0.819655,571.825,1309.14,1307.67,0.821491,0.0176188
513.0,0.82227,571.99,1314.18,1312.71,0.822993,0.0191194
516.0,0.821898,572.155,1319.22,1317.75,0.822993,0.0191181
519.0,0.825484,572.32,1324.25,1322.78,0.825484,0.0216078
522.0,0.821985,572.485,1329.28,1327.81,0.824247,0.0203694
525.0,0.826391,572.65,1334.31,1332.83,0.824728,0.0208491
528.0,0.823205,572.815,1339.33,1337.86,0.823248,0.0193678
531.0,0.81901,572.979,1344.36,1342.88,0.822028,0.0181464
534.0,0.823416,573.144,1349.38,1347.89,0.823416,0.0195331
537.0,0.825833,573.309,1354.39,1352.91,0.823017,0.0191328
540.0,0.822078,573.474,1359.41,1357.92,0.822286,0.0184004
543.0,0.823612,573.639,1364.42,1362.93,0.823651,0.0197641
546.0,0.822858,573.804,1369.43,1367.93,0.822858,0.0189698
549.0,0.822158,573.968,1374.43,1372.94,0.822257,0.0183674
552.0,0.827369,574.133,1379.43,1377.94,0.823537,0.0196461
555.0,0.821689,574.298,1384.43,1382.93,0.822572,0.0186798
558.0,0.821688,574.463,1389.43,1387.93,0.823646,0.0197524
561.0,0.824071,574.628,1394.42,1392.92,0.823646,0.0197511
564.0,0.822084,574.793,1399.41,1397.91,0.82277,0.0188738
567.0,0.825176,574.957,1404.4,1402.89,0.823461,0.0195634
570.0,0.822391,575.122,1409.39,1407.87,0.822446,0.0185471
573.0,0.835084,575.287,1414.37,1412.85,0.822257,0.0183568
576.0,0.825149,575.452,1419.35,1417.83,0.823148,0.0192464
579.0,0.827919,575.617,1424.32,1422.81,0.823675,0.0197721
582.0,0.823395,575.782,1429.3,1427.78,0.823395,0.0194908
585.0,0.840128,575.946,1434.27,1432.74,0.823213,0.0193074
588.0,0.825364,576.111,1439.24,1437.71,0.82257,0.0186631
591.0,0.822089,576.276,1444.2,1442.67,0.82257,0.0186618
594.0,0.824752,576.441,1449.16,1447.63,0.825097,0.0211874
597.0,0.824156,576.606,1454.12,1452.59,0.824156,0.0202451
600.0,0.831155,576.771,1459.08,1457.54,0.824604,0.0206918
603.0,0.822775,576.936,1464.03,1462.5,0.823915,0.0200014
606.0,0.833619,577.1,1468.98,1467.44,0.824763,0.0208481
609.0,0.824207,577.265,1473.93,1472.39,0.824763,0.0208468
612.0,0.826124,577.43,1478.88,1477.33,0.826124,0.0222064
615.0,0.824046,577.595,1483.82,1482.27,0.82368,0.0197611
618.0,0.825588,577.76,1488.76,1487.21,0.82368,0.0197597
621.0,0.824946,577.925,1493.7,1492.14,0.826556,0.0226344
624.0,0.827067,578.089,1498.63,1497.08,0.826556,0.0226331
627.0,0.822956,578.254,1503.56,1502.01,0.824067,0.0201427
630.0,0.853368,578.419,1508.49,1506.93,0.825185,0.0212594
633.0,0.822706,578.584,1513.41,1511.85,0.824205,0.0202781
636.0,0.824735,578.749,1518.34,1516.77,0.824712,0.0207837
639.0,0.823498,578.914,1523.26,1521.69,0.824712,0.0207824
642.0,0.8251,579.078,1528.17,1526.61,0.8251,0.0211691
645.0,0.824208,579.243,1533.09,1531.52,0.824208,0.0202757
648.0,0.824016,579.408,1538,1536.43,0.823775,0.0198414
651.0,0.823909,579.573,1542.91,1541.33,0.823909,0.0199741
654.0,0.824238,579.738,1547.82,1546.24,0.824638,0.0207017
657.0,0.827269,579.903,1552.72,1551.14,0.826747,0.0228094
660.0,0.824516,580.067,1557.62,1556.04,0.825432,0.0214931
663.0,0.826417,580.232,1562.52,1560.93,0.825432,0.0214917
666.0,0.835223,580.397,1567.41,1565.83,0.825059,0.0211174
669.0,0.826247,580.562,1572.3,1570.72,0.825344,0.0214011
672.0,0.901029,580.727,1577.19,1575.6,0.824502,0.0205577
675.0,0.825371,580.892,1582.08,1580.49,0.82424,0.0202944
678.0,0.824099,581.057,1586.96,1585.37,0.824099,0.0201521
681.0,0.824717,581.221,1591.84,1590.25,0.824963,0.0210147
684.0,0.824428,581.386,1596.72,1595.12,0.824963,0.0210134
687.0,0.826062,581.551,1601.6,1600,0.825035,0.0210841
690.0,0.825665,581.716,1606.47,1604.87,0.825038,0.0210857
693.0,0.823426,581.881,1611.34,1609.73,0.824068,0.0201144
696.0,0.824472,582.046,1616.21,1614.6,0.824472,0.0205171
699.0,0.824929,582.21,1621.07,1619.46,0.82821,0.0242537
702.0,0.831614,582.375,1625.93,1624.32,0.825157,0.0211994
705.0,0.825515,582.54,1630.79,1629.18,0.825515,0.0215561
708.0,0.828794,582.705,1635.65,1634.03,0.826732,0.0227717
711.0,0.828382,582.87,1640.5,1638.88,0.826612,0.0226504
714.0,0.826064,583.035,1645.35,1643.73,0.826612,0.0226491
717.0,0.824842,583.199,1650.2,1648.57,0.826407,0.0224427
720.0,0.827519,583.364,1655.04,1653.42,0.826878,0.0229124
723.0,0.824576,583.529,1659.89,1658.26,0.825195,0.021228
726.0,0.828152,583.694,1664.73,1663.1,0.828152,0.0241837
729.0,0.826803,583.859,1669.56,1667.93,0.826207,0.0222374
732.0,0.827641,584.024,1674.4,1672.76,0.826184,0.022213
735.0,0.825865,584.188,1679.23,1677.59,0.825865,0.0218927
738.0,0.826784,584.353,1684.06,1682.42,0.826997,0.0230234
741.0,0.827194,584.518,1688.88,1687.24,0.826997,0.023022
744.0,0.826319,584.683,1693.71,1692.06,0.826319,0.0223427
747.0,0.828964,584.848,1698.53,1696.88,0.828964,0.0249864
750.0,0.825348,585.013,1703.35,1701.7,0.826217,0.022238
753.0,0.828061,585.178,1708.16,1706.51,0.828061,0.0240807
756.0,0.827829,585.342,1712.97,1711.32,0.827829,0.0238474
759.0,0.825366,585.507,1717.78,1716.13,0.826771,0.022788
762.0,0.826959,585.672,1722.59,1720.93,0.826771,0.0227867
765.0,0.826832,585.837,1727.39,1725.73,0.826832,0.0228464
768.0,0.827798,586.002,1732.2,1730.53,0.827077,0.02309
771.0,0.828483,586.167,1737,1735.33,0.827833,0.0238447
774.0,0.831348,586.331,1741.79,1740.12,0.827833,0.0238434
777.0,0.826994,586.496,1746.58,1744.91,0.826994,0.023003
780.0,0.825831,586.661,1751.38,1749.7,0.82606,0.0220677
783.0,0.880931,586.826,1756.16,1754.49,0.826806,0.0228124
786.0,0.830003,586.991,1760.95,1759.27,0.826375,0.02238
789.0,0.829199,587.156,1765.73,1764.05,0.827869,0.0238727
792.0,0.828291,587.32,1770.51,1768.83,0.827869,0.0238714
795.0,0.830493,587.485,1775.29,1773.61,0.825856,0.021857
798.0,0.839087,587.65,1780.06,1778.38,0.828298,0.0242977
801.0,0.828163,587.815,1784.84,1783.15,0.827312,0.0233104
804.0,0.827755,587.98,1789.61,1787.91,0.826731,0.022728
807.0,0.827171,588.145,1794.37,1792.68,0.826407,0.0224027
810.0,0.826336,588.309,1799.14,1797.44,0.826336,0.0223304
813.0,0.82693,588.474,1803.9,1802.2,0.827883,0.023876
816.0,0.828193,588.639,1808.66,1806.96,0.827883,0.0238747
819.0,0.827252,588.804,1813.41,1811.71,0.827252,0.0232424
822.0,0.82639,588.969,1818.17,1816.46,0.82639,0.022379
825.0,0.828297,589.134,1822.92,1821.21,0.828082,0.0240697
828.0,0.82966,589.299,1827.66,1825.96,0.828003,0.0239893
831.0,0.827503,589.463,1832.41,1830.7,0.827503,0.023488
834.0,0.826897,589.628,1837.15,1835.44,0.827658,0.0236417
837.0,0.826125,589.793,1841.89,1840.18,0.827658,0.0236403
840.0,0.826668,589.958,1846.63,1844.91,0.826668,0.022649
843.0,0.830101,590.123,1851.36,1849.65,0.828927,0.0249067
846.0,0.83233,590.288,1856.1,1854.37,0.83346,0.0294383
849.0,0.826114,590.452,1860.83,1859.1,0.829193,0.02517
852.0,0.827548,590.617,1865.55,1863.83,0.829122,0.0250977
855.0,0.828735,590.782,1870.28,1868.55,0.829122,0.0250963
858.0,0.828287,590.947,1875,1873.27,0.828287,0.02426
861.0,0.829432,591.112,1879.72,1877.98,0.829432,0.0254037
864.0,0.827213,591.277,1884.43,1882.7,0.831391,0.0273613
867.0,0.842974,591.441,1889.15,1887.41,0.830472,0.026441
870.0,0.83088,591.606,1893.86,1892.12,0.830065,0.0260327
873.0,0.833378,591.771,1898.57,1896.83,0.828048,0.0240143
876.0,0.829783,591.936,1903.27,1901.53,0.827845,0.02381
879.0,0.828525,592.101,1907.98,1906.23,0.828525,0.0244887
882.0,0.828714,592.266,1912.68,1910.93,0.829838,0.0258003
885.0,0.826911,592.43,1917.38,1915.62,0.829392,0.025353
888.0,0.832106,592.595,1922.07,1920.32,0.829392,0.0253517
891.0,0.828502,592.76,1926.76,1925.01,0.828105,0.0240633
894.0,0.82875,592.925,1931.45,1929.7,0.82875,0.024707
897.0,0.829174,593.09,1936.14,1934.38,0.829169,0.0251247
900.0,0.829657,593.255,1940.83,1939.06,0.829154,0.0251083
903.0,0.828215,593.42,1945.51,1943.74,0.828292,0.024245
906.0,0.832549,593.584,1950.19,1948.42,0.831865,0.0278167
909.0,0.828629,593.749,1954.86,1953.1,0.830827,0.0267773
912.0,0.829162,593.914,1959.54,1957.77,0.829162,0.025111
915.0,0.829328,594.079,1964.21,1962.44,0.828164,0.0241117
918.0,0.829893,594.244,1968.88,1967.11,0.827688,0.0236343
921.0,0.829928,594.409,1973.55,1971.77,0.829177,0.025122
924.0,0.828274,594.573,1978.21,1976.43,0.829362,0.0253057
927.0,0.831472,594.738,1982.87,1981.09,0.831051,0.0269933
930.0,0.8268,594.903,1987.53,1985.75,0.829494,0.025435
933.0,0.830513,595.068,1992.19,1990.4,0.830513,0.0264527
936.0,0.826279,595.233,1996.84,1995.05,0.829276,0.0252143
939.0,0.832273,595.398,2001.49,1999.7,0.831416,0.027353
942.0,0.826984,595.562,2006.14,2004.35,0.828454,0.0243896
945.0,0.8285,595.727,2010.79,2008.99,0.828454,0.0243883
948.0,0.829854,595.892,2015.43,2013.63,0.829854,0.025787
951.0,0.830759,596.057,2020.07,2018.27,0.832154,0.0280856
954.0,0.82934,596.222,2024.71,2022.91,0.830379,0.0263093
957.0,0.827781,596.387,2029.35,2027.54,0.827781,0.02371
960.0,0.827724,596.551,2033.98,2032.17,0.827724,0.0236516
963.0,0.829356,596.716,2038.61,2036.8,0.831412,0.0273383
966.0,0.827633,596.881,2043.24,2041.43,0.828408,0.024333
969.0,0.832107,597.046,2047.86,2046.05,0.828793,0.0247166
972.0,0.830471,597.211,2052.49,2050.67,0.830471,0.0263933
975.0,0.834043,597.376,2057.11,2055.29,0.830439,0.02636
978.0,0.829415,597.541,2061.73,2059.91,0.829415,0.0253346
981.0,0.825038,597.705,2066.34,2064.52,0.829454,0.0253723
984.0,0.829815,597.87,2070.95,2069.13,0.829815,0.025732
987.0,0.831116,598.035,2075.56,2073.74,0.831116,0.0270316
990.0,0.828833,598.2,2080.17,2078.34,0.828164,0.0240783
993.0,0.828143,598.365,2084.78,2082.95,0.828143,0.024056
996.0,0.834376,598.53,2089.38,2087.55,0.828611,0.0245226
999.0,0.835481,598.694,2093.98,2092.15,0.829227,0.0251373
1002.0,0.829445,598.859,2098.58,2096.74,0.829227,0.025136
1005.0,0.828531,599.024,2103.17,2101.33,0.828118,0.0240256
1008.0,0.832715,599.189,2107.77,2105.93,0.828438,0.0243443
1011.0,0.830762,599.354,2112.36,2110.51,0.828438,0.024343
1014.0,0.827773,599.519,2116.94,2115.1,0.827773,0.0236766
1017.0,0.827524,599.683,2121.53,2119.68,0.828431,0.0243333
1020.0,0.829529,599.848,2126.11,2124.26,0.831216,0.027117
1023.0,0.828926,600.013,2130.69,2128.84,0.829451,0.0253506
1026.0,0.827195,600.178,2135.27,2133.41,0.829437,0.0253353
1029.0,0.830156,600.343,2139.84,2137.99,0.8289,0.024797
1032.0,0.82972,600.508,2144.42,2142.56,0.82972,0.0256156
1035.0,0.826934,600.672,2148.99,2147.13,0.829901,0.0257953
1038.0,0.827034,600.837,2153.55,2151.69,0.828453,0.024346
1041.0,0.829386,601.002,2158.12,2156.25,0.830443,0.0263346
1044.0,0.83961,601.167,2162.68,2160.81,0.830443,0.0263333
1047.0,0.826598,601.332,2167.24,2165.37,0.828359,0.0242479
1050.0,0.828453,601.497,2171.8,2169.93,0.828453,0.0243406
1053.0,0.828138,601.662,2176.35,2174.48,0.828432,0.0243183
1056.0,0.828774,601.826,2180.9,2179.03,0.828774,0.0246589
1059.0,0.829571,601.991,2185.45,2183.58,0.829571,0.0254546
1062.0,0.82907,602.156,2190,2188.12,0.82907,0.0249523
1065.0,0.827878,602.321,2194.55,2192.67,0.828927,0.0248079
1068.0,0.830079,602.486,2199.09,2197.21,0.830048,0.0259276
1071.0,0.830668,602.651,2203.63,2201.74,0.830048,0.0259263
1074.0,0.831594,602.815,2208.17,2206.28,0.830285,0.0261619
1077.0,0.82848,602.98,2212.7,2210.81,0.829599,0.0254746
1080.0,0.830704,603.145,2217.23,2215.34,0.830704,0.0265783
1083.0,0.833336,603.31,2221.76,2219.87,0.833336,0.0292089
1086.0,0.829176,603.475,2226.29,2224.4,0.834184,0.0300556
1089.0,0.832007,603.64,2230.82,2228.92,0.832007,0.0278773
1092.0,0.830625,603.804,2235.34,2233.44,0.829808,0.0256769
1095.0,0.836744,603.969,2239.86,2237.96,0.829808,0.0256756
1098.0,0.832751,604.134,2244.38,2242.47,0.828782,0.0246483
1101.0,0.833972,604.299,2248.89,2246.99,0.83056,0.0264249
1104.0,0.830152,604.464,2253.41,2251.5,0.83056,0.0264236
1107.0,0.830135,604.629,2257.92,2256,0.829532,0.0253943
1110.0,0.828496,604.794,2262.42,2260.51,0.829532,0.0253929
1113.0,0.83182,604.958,2266.93,2265.01,0.83182,0.0276796
1116.0,0.828831,605.123,2271.43,2269.51,0.831297,0.0271553
1119.0,0.834468,605.288,2275.93,2274.01,0.832998,0.0288549
1122.0,0.832743,605.453,2280.43,2278.51,0.830116,0.0259716
1125.0,0.83239,605.618,2284.93,2283,0.830116,0.0259703
1128.0,0.830692,605.783,2289.42,2287.49,0.830484,0.0263369
1131.0,0.829451,605.947,2293.91,2291.98,0.829356,0.0252076
1134.0,0.831354,606.112,2298.4,2296.47,0.829356,0.0252063
1137.0,0.833676,606.277,2302.88,2300.95,0.832397,0.0282459
1140.0,0.830372,606.442,2307.37,2305.43,0.83082,0.0266676
1143.0,0.827815,606.607,2311.85,2309.91,0.830783,0.0266293
1146.0,0.832386,606.772,2316.33,2314.39,0.831877,0.0277219
1149.0,0.829784,606.936,2320.8,2318.86,0.829527,0.0253706
1152.0,0.829765,607.101,2325.28,2323.33,0.82893,0.0247722
1155.0,0.83564,607.266,2329.75,2327.8,0.82893,0.0247709
1158.0,0.831554,607.431,2334.22,2332.27,0.829653,0.0254926
1161.0,0.830513,607.596,2338.68,2336.73,0.830123,0.0259612
1164.0,0.829651,607.761,2343.15,2341.19,0.829212,0.0250489
1167.0,0.835822,607.925,2347.61,2345.65,0.829212,0.0250476
1170.0,0.8276,608.09,2352.07,2350.11,0.828492,0.0243262
1173.0,0.833906,608.255,2356.52,2354.57,0.831241,0.0270739
1176.0,0.82869,608.42,2360.98,2359.02,0.830696,0.0265276
1179.0,0.828659,608.585,2365.43,2363.47,0.82972,0.0255502
1182.0,0.827662,608.75,2369.88,2367.91,0.82972,0.0255489
1185.0,0.827618,608.915,2374.33,2372.36,0.831493,0.0273206
1188.0,0.829733,609.079,2378.77,2376.8,0.830174,0.0260002
1191.0,0.830254,609.244,2383.21,2381.24,0.830174,0.0259989
1194.0,0.831597,609.409,2387.65,2385.68,0.831597,0.0274206
1197.0,0.830122,609.574,2392.09,2390.12,0.832202,0.0280242
1200.0,0.832252,609.739,2396.52,2394.55,0.832252,0.0280729
1203.0,0.829241,609.904,2400.96,2398.98,0.829241,0.0250606
1206.0,0.830294,610.068,2405.39,2403.41,0.829642,0.0254602
1209.0,0.829957,610.233,2409.82,2407.83,0.829642,0.0254589
1212.0,0.83049,610.398,2414.24,2412.26,0.829889,0.0257046
1215.0,0.829219,610.563,2418.66,2416.68,0.829335,0.0251492
1218.0,0.828244,610.728,2423.08,2421.1,0.828864,0.0246769
1221.0,0.832576,610.893,2427.5,2425.51,0.829529,0.0253406
1224.0,0.829268,611.057,2431.92,2429.93,0.82855,0.0243602
1227.0,0.829818,611.222,2436.33,2434.34,0.828524,0.0243329
1230.0,0.829426,611.387,2440.74,2438.75,0.828715,0.0245226
1233.0,0.830434,611.552,2445.15,2443.15,0.829243,0.0250492
1236.0,0.827161,611.717,2449.56,2447.56,0.828599,0.0244039
1239.0,0.829016,611.882,2453.96,2451.96,0.829191,0.0249946
1242.0,0.830361,612.046,2458.36,2456.36,0.829191,0.0249932
1245.0,0.83301,612.211,2462.76,2460.75,0.828948,0.0247489
1248.0,0.829298,612.376,2467.16,2465.15,0.830822,0.0266216
1251.0,0.830195,612.541,2471.55,2469.54,0.830195,0.0259932
1254.0,0.82896,612.706,2475.95,2473.93,0.82896,0.0247569
1257.0,0.831138,612.871,2480.34,2478.32,0.831138,0.0269335
1260.0,0.830553,613.036,2484.72,2482.71,0.830553,0.0263472
1263.0,0.827215,613.2,2489.11,2487.09,0.827654,0.0234469
1266.0,0.829636,613.365,2493.49,2491.47,0.829636,0.0254275
1269.0,0.829788,613.53,2497.87,2495.85,0.829788,0.0255782
1272.0,0.829365,613.695,2502.25,2500.22,0.829365,0.0251539
1275.0,0.832906,613.86,2506.63,2504.6,0.829609,0.0253965
1278.0,0.827734,614.025,2511,2508.97,0.827964,0.0237502
1281.0,0.827552,614.189,2515.37,2513.34,0.827552,0.0233369
1284.0,0.827326,614.354,2519.74,2517.7,0.827326,0.0231095
1287.0,0.845062,614.519,2524.1,2522.07,0.828477,0.0242592
1290.0,0.828897,614.684,2528.47,2526.43,0.828477,0.0242579
1293.0,0.830568,614.849,2532.83,2530.79,0.829647,0.0254265
1296.0,0.830718,615.014,2537.19,2535.15,0.829647,0.0254252
1299.0,0.830221,615.178,2541.55,2539.5,0.82892,0.0246969
1302.0,0.831312,615.343,2545.9,2543.85,0.82892,0.0246955
1305.0,0.829034,615.508,2550.25,2548.2,0.829034,0.0248082
1308.0,0.827494,615.673,2554.6,2552.55,0.82835,0.0241229
1311.0,0.827937,615.838,2558.95,2556.9,0.828199,0.0239705
1314.0,0.829223,616.003,2563.3,2561.24,0.828199,0.0239692
1317.0,0.828632,616.167,2567.64,2565.58,0.828632,0.0244009
1320.0,0.833867,616.332,2571.98,2569.92,0.828931,0.0246985
1323.0,0.841407,616.497,2576.32,2574.26,0.828836,0.0246022
1326.0,0.830023,616.662,2580.65,2578.59,0.827633,0.0233979
1329.0,0.827879,616.827,2584.99,2582.92,0.827879,0.0236425
1332.0,0.828146,616.992,2589.32,2587.25,0.82774,0.0235022
1335.0,0.830475,617.157,2593.65,2591.58,0.826155,0.0219159
1338.0,0.830824,617.321,2597.97,2595.9,0.829238,0.0249975
1341.0,0.827695,617.486,2602.3,2600.22,0.829238,0.0249962
1344.0,0.829365,617.651,2606.62,2604.54,0.829365,0.0251219
1347.0,0.831063,617.816,2610.94,2608.86,0.830575,0.0263305
1350.0,0.834833,617.981,2615.26,2613.18,0.829583,0.0253372
1353.0,0.828438,618.146,2619.57,2617.49,0.828438,0.0241909
1356.0,0.828335,618.31,2623.89,2621.8,0.828425,0.0241765
1359.0,0.827727,618.475,2628.2,2626.11,0.828425,0.0241752
1362.0,0.82789,618.64,2632.5,2630.42,0.82789,0.0236388
1365.0,0.826016,618.805,2636.81,2634.72,0.827168,0.0229155
1368.0,0.827734,618.97,2641.11,2639.02,0.827734,0.0234802
1371.0,0.826311,619.135,2645.42,2643.32,0.827087,0.0228318
1374.0,0.826483,619.299,2649.71,2647.62,0.82801,0.0237535
1377.0,0.829308,619.464,2654.01,2651.91,0.829566,0.0253082
1380.0,0.831829,619.629,2658.31,2656.21,0.830397,0.0261378
1383.0,0.827154,619.794,2662.6,2660.5,0.827154,0.0228935
1386.0,0.829023,619.959,2666.89,2664.78,0.829023,0.0247612
1389.0,0.829815,620.124,2671.18,2669.07,0.829815,0.0255518
1392.0,0.839079,620.288,2675.46,2673.35,0.827018,0.0227535
1395.0,0.830506,620.453,2679.74,2677.63,0.828172,0.0239062
1398.0,0.827369,620.618,2684.03,2681.91,0.828172,0.0239048
1401.0,0.827496,620.783,2688.3,2686.19,0.827496,0.0232275
1404.0,0.825302,620.948,2692.58,2690.46,0.8274,0.0231302
1407.0,0.824902,621.113,2696.85,2694.74,0.827554,0.0232828
1410.0,0.828009,621.278,2701.13,2699.01,0.828009,0.0237365
1413.0,0.828027,621.442,2705.4,2703.27,0.828027,0.0237532
1416.0,0.829108,621.607,2709.66,2707.54,0.829108,0.0248328
1419.0,0.829161,621.772,2713.93,2711.8,0.829161,0.0248845
1422.0,0.833884,621.937,2718.19,2716.06,0.827598,0.0233202
1425.0,0.82697,622.102,2722.45,2720.32,0.82697,0.0226908
1428.0,0.83582,622.267,2726.71,2724.58,0.828628,0.0243475
1431.0,0.82615,622.431,2730.96,2728.83,0.827447,0.0231652
1434.0,0.829388,622.596,2735.22,2733.08,0.827447,0.0231638
1437.0,0.830517,622.761,2739.47,2737.33,0.827244,0.0229595
1440.0,0.826982,622.926,2743.72,2741.58,0.828175,0.0238892
1443.0,0.82791,623.091,2747.97,2745.82,0.828175,0.0238878
1446.0,0.828599,623.256,2752.21,2750.07,0.828599,0.0243105
1449.0,0.825954,623.42,2756.45,2754.31,0.827412,0.0231222
1452.0,0.825465,623.585,2760.69,2758.55,0.825819,0.0215278
1455.0,0.827174,623.75,2764.93,2762.78,0.826598,0.0223055
1458.0,0.824039,623.915,2769.17,2767.01,0.826254,0.0219602
1461.0,0.838524,624.08,2773.4,2771.25,0.826634,0.0223388
1464.0,0.825227,624.245,2777.63,2775.48,0.826634,0.0223375
1467.0,0.824294,624.409,2781.86,2779.7,0.825165,0.0208671
1470.0,0.823571,624.574,2786.09,2783.93,0.826024,0.0217248
1473.0,0.826172,624.739,2790.31,2788.15,0.826294,0.0219935
1476.0,0.824956,624.904,2794.53,2792.37,0.824956,0.0206541
1479.0,0.826443,625.069,2798.75,2796.59,0.826443,0.0221398
1482.0,0.824315,625.234,2802.97,2800.8,0.825922,0.0216175
1485.0,0.825527,625.399,2807.19,2805.02,0.825922,0.0216161
1488.0,0.823192,625.563,2811.4,2809.23,0.825975,0.0216678
1491.0,0.824848,625.728,2815.61,2813.44,0.826923,0.0226145
1494.0,0.824848,625.893,2819.82,2817.65,0.825615,0.0213051
1497.0,0.823901,626.058,2824.03,2821.85,0.825615,0.0213038
1500.0,0.822489,626.223,2828.23,2826.05,0.824726,0.0204135
1503.0,0.825397,626.388,2832.44,2830.25,0.824726,0.0204121
1506.0,0.82522,626.552,2836.64,2834.45,0.82522,0.0209048
1509.0,0.822355,626.717,2840.83,2838.65,0.825563,0.0212465
1512.0,0.824833,626.882,2845.03,2842.84,0.824971,0.0206531
1515.0,0.839232,627.047,2849.22,2847.03,0.826531,0.0222118
1518.0,0.823015,627.212,2853.41,2851.22,0.823733,0.0194125
1521.0,0.825177,627.377,2857.6,2855.41,0.824555,0.0202331
1524.0,0.825333,627.541,2861.79,2859.59,0.825099,0.0207758
1527.0,0.825451,627.706,2865.97,2863.78,0.825099,0.0207745
1530.0,0.825747,627.871,2870.16,2867.96,0.825062,0.0207361
1533.0,0.826372,628.036,2874.34,2872.14,0.825062,0.0207348
1536.0,0.824204,628.201,2878.52,2876.31,0.824204,0.0198755
1539.0,0.826169,628.366,2882.69,2880.49,0.825949,0.0216191
1542.0,0.824024,628.53,2886.87,2884.66,0.827177,0.0228458
1545.0,0.832598,628.695,2891.04,2888.83,0.827177,0.0228445
1548.0,0.824225,628.86,2895.21,2892.99,0.824225,0.0198911
1551.0,0.824501,629.025,2899.37,2897.16,0.824501,0.0201658
1554.0,0.823867,629.19,2903.54,2901.32,0.823867,0.0195305
1557.0,0.824981,629.355,2907.7,2905.48,0.824981,0.0206431
1560.0,0.823753,629.52,2911.86,2909.64,0.82425,0.0199108
1563.0,0.82333,629.684,2916.02,2913.8,0.82425,0.0199095
1566.0,0.823666,629.849,2920.18,2917.95,0.823666,0.0193241
1569.0,0.821902,630.014,2924.33,2922.1,0.823214,0.0188708
1572.0,0.823889,630.179,2928.48,2926.25,0.827687,0.0233424
1575.0,0.825957,630.344,2932.63,2930.4,0.825957,0.0216111
1578.0,0.822932,630.509,2936.78,2934.55,0.824048,0.0197008
1581.0,0.824065,630.673,2940.93,2938.69,0.82472,0.0203714
1584.0,0.824671,630.838,2945.07,2942.83,0.82472,0.0203701
1587.0,0.825559,631.003,2949.21,2946.97,0.825591,0.0212398
1590.0,0.822705,631.168,2953.35,2951.11,0.824241,0.0198884
1593.0,0.824559,631.333,2957.49,2955.24,0.824241,0.0198871
1596.0,0.836012,631.498,2961.62,2959.38,0.827405,0.0230498
1599.0,0.82235,631.662,2965.75,2963.51,0.82364,0.0192834
1602.0,0.823997,631.827,2969.88,2967.64,0.823825,0.0194671
1605.0,0.824978,631.992,2974.01,2971.76,0.824335,0.0199758
1608.0,0.821866,632.157,2978.14,2975.89,0.823612,0.0192514
1611.0,0.821227,632.322,2982.26,2980.01,0.822054,0.0176921
1614.0,0.823401,632.487,2986.38,2984.13,0.822426,0.0180628
1617.0,0.82106,632.651,2990.5,2988.24,0.822426,0.0180614
1620.0,0.821883,632.816,2994.62,2992.36,0.823054,0.0186881
1623.0,0.821742,632.981,2998.73,2996.47,0.823356,0.0189888
1626.0,0.825763,633.146,3002.85,3000.58,0.824146,0.0197774
1629.0,0.822583,633.311,3006.96,3004.69,0.824008,0.0196381
1632.0,0.823933,633.476,3011.07,3008.8,0.824248,0.0198768
1635.0,0.821338,633.641,3015.17,3012.91,0.822974,0.0186014
1638.0,0.822523,633.805,3019.28,3017.01,0.822523,0.0181491
1641.0,0.822654,633.97,3023.38,3021.11,0.822447,0.0180718
1644.0,0.822893,634.135,3027.48,3025.21,0.822447,0.0180704
1647.0,0.822761,634.3,3031.58,3029.3,0.822182,0.0178041
1650.0,0.822832,634.465,3035.68,3033.4,0.822832,0.0184528
1653.0,0.823527,634.63,3039.77,3037.49,0.822847,0.0184664
1656.0,0.822546,634.794,3043.86,3041.58,0.822546,0.0181641
1659.0,0.82158,634.959,3047.95,3045.67,0.821783,0.0173998
1662.0,0.8234,635.124,3052.04,3049.75,0.823097,0.0187124
1665.0,0.822162,635.289,3056.12,3053.84,0.822162,0.0177761
1668.0,0.821162,635.454,3060.21,3057.92,0.821689,0.0173018
1671.0,0.821035,635.619,3064.29,3062,0.821689,0.0173004
1674.0,0.827991,635.783,3068.37,3066.07,0.821413,0.0170231
1677.0,0.818505,635.948,3072.44,3070.15,0.820808,0.0164167
1680.0,0.820999,636.113,3076.52,3074.22,0.82028,0.0158875
1683.0,0.819586,636.278,3080.59,3078.29,0.819586,0.0151922
1686.0,0.819886,636.443,3084.66,3082.36,0.819737,0.0153419
1689.0,0.820094,636.608,3088.73,3086.43,0.820351,0.0159546
1692.0,0.820408,636.772,3092.8,3090.49,0.820408,0.0160103
1695.0,0.819906,636.937,3096.86,3094.55,0.819906,0.0155071
1698.0,0.823091,637.102,3100.92,3098.61,0.823091,0.018691
1701.0,0.81932,637.267,3104.98,3102.67,0.821849,0.0174478
1704.0,0.817244,637.432,3109.04,3106.73,0.82087,0.0164677
1707.0,0.822115,637.597,3113.1,3110.78,0.821094,0.0166905
1710.0,0.820788,637.762,3117.15,3114.83,0.820788,0.0163834
1713.0,0.817822,637.926,3121.2,3118.88,0.820598,0.0161923
1716.0,0.820316,638.091,3125.25,3122.93,0.820208,0.0158012
1719.0,0.821343,638.256,3129.3,3126.98,0.820208,0.0158001
1722.0,0.82227,638.421,3133.34,3131.02,0.819986,0.015577
1725.0,0.82075,638.586,3137.39,3135.06,0.818831,0.014421
1728.0,0.820555,638.751,3141.43,3139.1,0.820284,0.015873
1731.0,0.819142,638.915,3145.47,3143.14,0.820546,0.016134
1734.0,0.818145,639.08,3149.51,3147.17,0.820713,0.0163001
1737.0,0.823154,639.245,3153.54,3151.21,0.820713,0.0162991
1740.0,0.821363,639.41,3157.57,3155.24,0.819492,0.0150772
1743.0,0.818353,639.575,3161.6,3159.27,0.819446,0.0150304
1746.0,0.819247,639.74,3165.63,3163.29,0.820391,0.0159746
1749.0,0.823525,639.904,3169.66,3167.32,0.821538,0.0171208
1752.0,0.820991,640.069,3173.68,3171.34,0.819843,0.015425
1755.0,0.818471,640.234,3177.71,3175.36,0.819843,0.0154243
1758.0,0.819378,640.399,3181.73,3179.38,0.820078,0.0156586
1761.0,0.818972,640.564,3185.75,3183.4,0.818972,0.0145519
1764.0,0.818672,640.729,3189.76,3187.41,0.818926,0.0145054
1767.0,0.819433,640.893,3193.78,3191.42,0.82136,0.0169389
1770.0,0.818391,641.058,3197.79,3195.43,0.819687,0.0152654
1773.0,0.821978,641.223,3201.8,3199.44,0.819532,0.0151099
1776.0,0.819474,641.388,3205.81,3203.45,0.819474,0.0150515
1779.0,0.817199,641.553,3209.81,3207.45,0.819651,0.0152281
1782.0,0.821043,641.718,3213.82,3211.45,0.821043,0.0166198
1785.0,0.820279,641.883,3217.82,3215.45,0.820833,0.0164095
1788.0,0.82191,642.047,3221.82,3219.45,0.820833,0.0164092
1791.0,0.819478,642.212,3225.82,3223.45,0.819624,0.0151999
1794.0,0.81985,642.377,3229.81,3227.44,0.81995,0.0155256
1797.0,0.819421,642.542,3233.81,3231.43,0.81995,0.0155253
1800.0,0.820379,642.707,3237.8,3235.42,0.820379,0.015954
1803.0,0.821684,642.872,3241.79,3239.41,0.821485,0.0170597
1806.0,0.825505,643.036,3245.77,3243.4,0.821485,0.0170594
1809.0,0.833191,643.201,3249.76,3247.38,0.822142,0.0177162
1812.0,0.82097,643.366,3253.74,3251.36,0.82097,0.0165439
1815.0,0.822113,643.531,3257.72,3255.34,0.824499,0.0200726
1818.0,0.819886,643.696,3261.7,3259.32,0.823012,0.0185853
1821.0,0.82136,643.861,3265.68,3263.29,0.822533,0.018106
1824.0,0.821768,644.025,3269.66,3267.27,0.822161,0.0177337
1827.0,0.820305,644.19,3273.63,3271.24,0.822634,0.0182064
1830.0,0.825182,644.355,3277.6,3275.21,0.822634,0.0182061
1833.0,0.821452,644.52,3281.57,3279.18,0.82051,0.0160819
1836.0,0.820213,644.685,3285.54,3283.14,0.820631,0.0162026
1839.0,0.822435,644.85,3289.5,3287.1,0.8211,0.0166714
1842.0,0.820841,645.015,3293.47,3291.07,0.8211,0.0166711
1845.0,0.821291,645.179,3297.43,3295.02,0.822112,0.0176829
1848.0,0.825835,645.344,3301.39,3298.98,0.824206,0.0197766
1851.0,0.820834,645.509,3305.34,3302.94,0.822562,0.0181324
1854.0,0.826553,645.674,3309.3,3306.89,0.822719,0.0182892
1857.0,0.820365,645.839,3313.25,3310.84,0.821921,0.0174909
1860.0,0.82397,646.004,3317.2,3314.79,0.82337,0.0189397
1863.0,0.823295,646.168,3321.15,3318.74,0.824364,0.0199334
1866.0,0.822217,646.333,3325.1,3322.68,0.824364,0.0199332
1869.0,0.822743,646.498,3329.04,3326.63,0.824444,0.0200129
1872.0,0.825303,646.663,3332.98,3330.57,0.824504,0.0200727
1875.0,0.826868,646.828,3336.93,3334.51,0.822995,0.0185634
1878.0,0.826365,646.993,3340.86,3338.44,0.82408,0.0196482
1881.0,0.824776,647.157,3344.8,3342.38,0.824776,0.0203439
1884.0,0.822812,647.322,3348.74,3346.31,0.825502,0.0210697
1887.0,0.827849,647.487,3352.67,3350.24,0.827071,0.0226384
1890.0,0.826528,647.652,3356.6,3354.17,0.827071,0.0226382
1893.0,0.825647,647.817,3360.53,3358.1,0.826609,0.022176
1896.0,0.831372,647.982,3364.46,3362.02,0.827894,0.0234607
1899.0,0.827995,648.146,3368.38,3365.95,0.828453,0.0240195
1902.0,0.828438,648.311,3372.3,3369.87,0.828453,0.0240192
1905.0,0.831727,648.476,3376.22,3373.79,0.831727,0.027293
1908.0,0.835033,648.641,3380.14,3377.7,0.835033,0.0305987
1911.0,0.838722,648.806,3384.06,3381.62,0.838722,0.0342875
1914.0,0.840311,648.971,3387.98,3385.53,0.841852,0.0374172
1917.0,0.847659,649.136,3391.89,3389.44,0.847659,0.043224
1920.0,0.853965,649.3,3395.8,3393.35,0.854592,0.0501567
1923.0,0.857165,649.465,3399.71,3397.26,0.860824,0.0563885
1926.0,0.859272,649.63,3403.62,3401.16,0.860824,0.0563882
1929.0,0.863154,649.795,3407.52,3405.07,0.861761,0.057325
1932.0,0.864095,649.96,3411.42,3408.97,0.859927,0.0554908
1935.0,0.855017,650.125,3415.32,3412.87,0.855017,0.0505805
1938.0,0.853608,650.289,3419.22,3416.76,0.850787,0.0463503
1941.0,0.846264,650.454,3423.12,3420.66,0.846264,0.041827
1944.0,0.846435,650.619,3427.02,3424.55,0.843322,0.0388848
1947.0,0.83791,650.784,3430.91,3428.44,0.840085,0.0356475
1950.0,0.836113,650.949,3434.8,3432.33,0.837778,0.0333403
1953.0,0.835339,651.114,3438.69,3436.22,0.835528,0.03109
1956.0,0.833426,651.278,3442.58,3440.11,0.835528,0.0310898
1959.0,0.831369,651.443,3446.46,3443.99,0.83199,0.0275515
1962.0,0.829632,651.608,3450.34,3447.87,0.830729,0.0262903
1965.0,0.831991,651.773,3454.23,3451.75,0.831903,0.0274641
1968.0,0.838628,651.938,3458.11,3455.63,0.833955,0.0295158
1971.0,0.833384,652.103,3461.98,3459.5,0.834221,0.0297816
1974.0,0.835887,652.267,3465.86,3463.38,0.835887,0.0314473
1977.0,0.8378,652.432,3469.73,3467.25,0.8378,0.0333601
1980.0,0.842878,652.597,3473.6,3471.12,0.84248,0.0380398
1983.0,0.847437,652.762,3477.47,3474.99,0.847437,0.0429966
1986.0,0.853137,652.927,3481.34,3478.85,0.853137,0.0486963
1989.0,0.861533,653.092,3485.21,3482.72,0.861533,0.0570921
1992.0,0.868543,653.257,3489.07,3486.58,0.870635,0.0661938
1995.0,0.874581,653.421,3492.93,3490.44,0.874581,0.0701396
1998.0,0.870646,653.586,3496.79,3494.3,0.870687,0.0662453
2001.0,0.867003,653.751,3500.65,3498.15,0.866888,0.0624461
2004.0,0.859378,653.916,3504.51,3502.01,0.859378,0.0549359
2007.0,0.84921,654.081,3508.36,3505.86,0.849326,0.0448836
2010.0,0.842951,654.246,3512.21,3509.71,0.842951,0.0385084
2013.0,0.839053,654.41,3516.06,3513.56,0.839053,0.0346101
2016.0,0.831888,654.575,3519.91,3517.4,0.831888,0.0274449
2019.0,0.830918,654.74,3523.76,3521.25,0.830901,0.0264576
2022.0,0.826498,654.905,3527.6,3525.09,0.82778,0.0233364
2025.0,0.825516,655.07,3531.44,3528.93,0.825516,0.0210721
2028.0,0.822583,655.235,3535.28,3532.77,0.822583,0.0181389
2031.0,0.821664,655.399,3539.12,3536.61,0.821792,0.0173476
2034.0,0.822562,655.564,3542.96,3540.44,0.822562,0.0181174
2037.0,0.818931,655.729,3546.79,3544.27,0.818931,0.0144861
2040.0,0.820788,655.894,3550.63,3548.1,0.819369,0.014924
2043.0,0.822137,656.059,3554.46,3551.93,0.819369,0.0149239
2046.0,0.818558,656.224,3558.28,3555.76,0.818558,0.0141128
2047.0,0.81958,656.279,3559.56,3557.04,0.818558,0.0141128