File: data/processed/processed_data/2024-08-27/2024-08-27_borosilicatetube_n_n_y_liquid_1000_0_5.csv
Pixels #,Intensity (a.u.),Wavelength (nm),Raman shift (cm-1),Raman shift (cm-1) adjusted,Filtered Intensity (a.u.),Baselined Filtered Intensity (a.u.)
0.0,7.55734,543.324,391.783,392.437,7.5571,-0.0129026
3.0,7.55759,543.489,397.367,398.015,7.55735,-0.0126527
6.0,7.55719,543.654,402.948,403.589,7.55719,-0.0128129
9.0,7.55739,543.819,408.525,409.159,7.55739,-0.0126132
12.0,7.55837,543.984,414.098,414.726,7.55754,-0.0124636
15.0,7.55525,544.149,419.669,420.29,7.55744,-0.0125641
18.0,7.55767,544.314,425.235,425.851,7.55692,-0.0130848
21.0,7.55626,544.479,430.799,431.408,7.55648,-0.0135255
24.0,7.55611,544.644,436.359,436.962,7.55632,-0.0136864
27.0,7.55625,544.808,441.916,442.512,7.55686,-0.0131474
30.0,7.56035,544.973,447.469,448.059,7.56018,-0.00982855
33.0,7.55913,545.138,453.019,453.603,7.56018,-0.00982977
36.0,7.55972,545.303,458.566,459.143,7.55901,-0.0110011
39.0,7.55687,545.468,464.109,464.68,7.55734,-0.0126725
42.0,7.55834,545.633,469.649,470.214,7.55734,-0.012674
45.0,7.55698,545.798,475.186,475.744,7.5564,-0.0136156
48.0,7.55986,545.963,480.719,481.271,7.55943,-0.0105874
51.0,7.55522,546.127,486.249,486.795,7.55555,-0.0144692
54.0,7.55808,546.292,491.776,492.315,7.55772,-0.0123012
57.0,7.55792,546.457,497.299,497.832,7.55772,-0.0123033
60.0,7.55612,546.622,502.819,503.346,7.55651,-0.0135155
63.0,7.55655,546.787,508.336,508.856,7.55655,-0.0134778
66.0,7.55701,546.952,513.849,514.363,7.55645,-0.0135803
69.0,7.55758,547.117,519.359,519.867,7.55758,-0.0124528
72.0,7.55947,547.282,524.866,525.367,7.55805,-0.0119855
75.0,7.55757,547.447,530.369,530.864,7.55781,-0.0122283
78.0,7.55625,547.611,535.869,536.358,7.55781,-0.0122312
81.0,7.55906,547.776,541.366,541.848,7.55769,-0.0123542
84.0,7.55767,547.941,546.859,547.335,7.55767,-0.0123773
87.0,7.56003,548.106,552.349,552.819,7.55864,-0.0114105
90.0,7.55752,548.271,557.836,558.3,7.55752,-0.0125338
93.0,7.55863,548.436,563.32,563.777,7.55863,-0.0114272
96.0,7.55952,548.601,568.8,569.251,7.55881,-0.0112508
99.0,7.55696,548.766,574.277,574.721,7.55751,-0.0125544
102.0,7.55594,548.931,579.751,580.189,7.55703,-0.0130381
105.0,7.5609,549.095,585.221,585.653,7.56013,-0.00994199
108.0,7.55803,549.26,590.688,591.114,7.55803,-0.0120459
111.0,7.55799,549.425,596.152,596.571,7.55799,-0.01209
114.0,7.55684,549.59,601.612,602.025,7.55684,-0.0132442
117.0,7.55688,549.755,607.069,607.476,7.55688,-0.0132085
120.0,7.56074,549.92,612.523,612.924,7.55861,-0.0114828
123.0,7.55567,550.085,617.974,618.369,7.55764,-0.0124573
126.0,7.55797,550.25,623.421,623.81,7.55758,-0.012522
129.0,7.55771,550.414,628.866,629.248,7.55771,-0.0123967
132.0,7.55778,550.579,634.307,634.682,7.55776,-0.0123515
135.0,7.55494,550.744,639.744,640.114,7.55494,-0.0151765
138.0,7.55637,550.909,645.179,645.542,7.55637,-0.0137515
141.0,7.55888,551.074,650.61,650.967,7.5582,-0.0119268
144.0,7.55885,551.239,656.038,656.388,7.5585,-0.0116321
147.0,7.55763,551.404,661.462,661.807,7.5585,-0.0116375
150.0,7.55802,551.569,666.884,667.222,7.55745,-0.012693
153.0,7.55718,551.734,672.302,672.634,7.5562,-0.0139487
156.0,7.55369,551.898,677.717,678.043,7.55432,-0.0158344
159.0,7.5557,552.063,683.128,683.448,7.5557,-0.0144603
162.0,7.5572,552.228,688.537,688.85,7.5572,-0.0129663
165.0,7.5572,552.393,693.942,694.249,7.55757,-0.0126025
168.0,7.55734,552.558,699.344,699.645,7.55757,-0.0126087
171.0,7.5589,552.723,704.743,705.038,7.55864,-0.0115451
174.0,7.55741,552.888,710.138,710.427,7.55846,-0.0117316
177.0,7.5579,553.053,715.531,715.813,7.5579,-0.0122982
180.0,7.55702,553.218,720.92,721.196,7.55667,-0.0135349
183.0,7.55577,553.382,726.306,726.576,7.55605,-0.0141617
186.0,7.55712,553.547,731.688,731.952,7.55712,-0.0130987
189.0,7.55907,553.712,737.068,737.326,7.55935,-0.0108757
192.0,7.55929,553.877,742.444,742.696,7.55907,-0.0111629
195.0,7.55779,554.042,747.817,748.063,7.55795,-0.0122901
198.0,7.55771,554.207,753.187,753.427,7.55783,-0.0124175
201.0,7.55906,554.372,758.554,758.787,7.55906,-0.011195
204.0,7.55945,554.537,763.917,764.144,7.56013,-0.0101326
207.0,7.55875,554.701,769.277,769.499,7.5589,-0.0113702
210.0,7.56131,554.866,774.635,774.85,7.56131,-0.008968
213.0,7.56194,555.031,779.989,780.197,7.56194,-0.00834586
216.0,7.56379,555.196,785.339,785.542,7.56379,-0.00650379
219.0,7.56188,555.361,790.687,790.883,7.56225,-0.00805177
222.0,7.56211,555.526,796.031,796.222,7.56212,-0.00818983
225.0,7.56292,555.691,801.373,801.557,7.56251,-0.00780796
228.0,7.56463,555.856,806.711,806.889,7.56368,-0.00664617
231.0,7.56228,556.021,812.046,812.218,7.56411,-0.00622443
234.0,7.56665,556.185,817.377,817.543,7.56581,-0.00453276
237.0,7.56581,556.35,822.706,822.866,7.56689,-0.00346112
240.0,7.56802,556.515,828.031,828.185,7.56802,-0.00233952
243.0,7.567,556.68,833.354,833.501,7.567,-0.00336794
246.0,7.56663,556.845,838.673,838.814,7.56678,-0.00359639
249.0,7.56915,557.01,843.989,844.124,7.56915,-0.00123487
252.0,7.56996,557.175,849.301,849.431,7.56958,-0.000813365
255.0,7.56814,557.34,854.611,854.734,7.56824,-0.00216187
258.0,7.56698,557.505,859.918,860.035,7.56855,-0.00186039
261.0,7.57247,557.669,865.221,865.332,7.57227,0.00185107
264.0,7.57174,557.834,870.521,870.626,7.57174,0.00131254
267.0,7.57017,557.999,875.818,875.917,7.57017,-0.000265981
270.0,7.56982,558.164,881.112,881.205,7.56982,-0.000624505
273.0,7.57054,558.329,886.403,886.49,7.56975,-0.000703036
276.0,7.56703,558.494,891.691,891.772,7.56901,-0.00145157
279.0,7.56806,558.659,896.976,897.051,7.56901,-0.00146013
282.0,7.57217,558.824,902.257,902.326,7.57041,-6.87026e-05
285.0,7.57029,558.988,907.536,907.598,7.57032,-0.000167269
288.0,7.56867,559.153,912.811,912.868,7.56867,-0.00182584
291.0,7.57045,559.318,918.083,918.134,7.57045,-5.44239e-05
294.0,7.57186,559.483,923.352,923.397,7.57186,0.00134698
297.0,7.57003,559.648,928.618,928.657,7.57056,3.83946e-05
300.0,7.56991,559.813,933.881,933.913,7.56991,-0.000620191
303.0,7.5702,559.978,939.141,939.167,7.5702,-0.000338782
306.0,7.57292,560.143,944.397,944.418,7.57212,0.00157263
309.0,7.56999,560.308,949.651,949.665,7.57003,-0.00052595
312.0,7.57012,560.472,954.901,954.91,7.57012,-0.000444524
315.0,7.56837,560.637,960.149,960.151,7.56968,-0.000893103
318.0,7.57089,560.802,965.393,965.39,7.56968,-0.000901691
321.0,7.56917,560.967,970.634,970.625,7.56924,-0.00135029
324.0,7.56913,561.132,975.872,975.857,7.56924,-0.00135889
327.0,7.57195,561.297,981.108,981.086,7.57055,-5.75102e-05
330.0,7.56908,561.462,986.34,986.312,7.56908,-0.00153613
333.0,7.56938,561.627,991.568,991.535,7.56883,-0.00179475
336.0,7.56973,561.791,996.794,996.755,7.5697,-0.000933396
339.0,7.57065,561.956,1002.02,1001.97,7.56968,-0.000962046
342.0,7.571,562.121,1007.24,1007.19,7.56999,-0.000660702
345.0,7.56921,562.286,1012.45,1012.4,7.56999,-0.000669358
348.0,7.57036,562.451,1017.67,1017.6,7.57036,-0.000308019
351.0,7.57131,562.616,1022.88,1022.81,7.57131,0.000633318
354.0,7.56954,562.781,1028.09,1028.01,7.56997,-0.00071534
357.0,7.57141,562.946,1033.29,1033.21,7.57141,0.000715997
360.0,7.57316,563.111,1038.49,1038.4,7.57246,0.00175734
363.0,7.57026,563.275,1043.69,1043.6,7.57145,0.000738704
366.0,7.57332,563.44,1048.88,1048.79,7.57171,0.00099007
369.0,7.57086,563.605,1054.08,1053.97,7.57171,0.00098145
372.0,7.57103,563.77,1059.27,1059.15,7.57103,0.000292836
375.0,7.56916,563.935,1064.45,1064.34,7.56948,-0.00126578
378.0,7.57168,564.1,1069.64,1069.51,7.57168,0.000925602
381.0,7.57064,564.265,1074.82,1074.69,7.57064,-0.000123013
384.0,7.56946,564.43,1079.99,1079.86,7.57001,-0.000761628
387.0,7.57015,564.595,1085.17,1085.03,7.57022,-0.000560251
390.0,7.57179,564.759,1090.34,1090.19,7.57153,0.000741123
393.0,7.56978,564.924,1095.51,1095.35,7.57121,0.000412504
396.0,7.56956,565.089,1100.67,1100.51,7.56956,-0.00124612
399.0,7.56982,565.254,1105.83,1105.67,7.56982,-0.000994749
402.0,7.57236,565.419,1110.99,1110.82,7.57236,0.00153661
405.0,7.5699,565.584,1116.15,1115.97,7.56998,-0.000852009
408.0,7.57112,565.749,1121.3,1121.12,7.57106,0.000219363
411.0,7.57097,565.914,1126.45,1126.26,7.57136,0.000510737
414.0,7.57019,566.078,1131.6,1131.4,7.57019,-0.000667886
417.0,7.56905,566.243,1136.74,1136.54,7.56882,-0.00204652
420.0,7.56875,566.408,1141.88,1141.68,7.5691,-0.00177516
423.0,7.56994,566.573,1147.02,1146.81,7.56979,-0.00109382
426.0,7.57093,566.738,1152.16,1151.94,7.57037,-0.000522495
429.0,7.57191,566.903,1157.29,1157.06,7.57085,-5.11692e-05
432.0,7.5717,567.068,1162.42,1162.19,7.5716,0.00069016
435.0,7.57077,567.233,1167.54,1167.31,7.57077,-0.000148507
438.0,7.56885,567.398,1172.67,1172.42,7.56921,-0.00171718
441.0,7.57071,567.562,1177.79,1177.54,7.57071,-0.00022586
444.0,7.57028,567.727,1182.9,1182.65,7.57028,-0.000664544
447.0,7.57422,567.892,1188.02,1187.76,7.57246,0.00150677
450.0,7.56987,568.057,1193.13,1192.86,7.57207,0.0011081
453.0,7.57374,568.222,1198.24,1197.97,7.57267,0.00169943
456.0,7.573,568.387,1203.34,1203.07,7.573,0.00202078
459.0,7.57276,568.552,1208.44,1208.16,7.57289,0.00190214
462.0,7.57263,568.717,1213.54,1213.26,7.57257,0.00157353
465.0,7.573,568.882,1218.64,1218.35,7.57145,0.000444931
468.0,7.5711,569.046,1223.73,1223.43,7.57184,0.000826341
471.0,7.57223,569.211,1228.82,1228.52,7.57215,0.00112775
474.0,7.57214,569.376,1233.91,1233.6,7.57215,0.00111918
477.0,7.57341,569.541,1239,1238.68,7.57257,0.00153061
480.0,7.57315,569.706,1244.08,1243.75,7.5731,0.00205206
483.0,7.57376,569.871,1249.16,1248.83,7.57252,0.00146353
486.0,7.57104,570.036,1254.23,1253.9,7.57118,0.000115014
489.0,7.57194,570.201,1259.3,1258.96,7.57194,0.000866499
492.0,7.56997,570.365,1264.37,1264.03,7.57079,-0.000292008
495.0,7.573,570.53,1269.44,1269.09,7.57258,0.00148948
498.0,7.57356,570.695,1274.51,1274.15,7.57258,0.00148099
501.0,7.56987,570.86,1279.57,1279.2,7.56994,-0.0011675
504.0,7.56985,571.025,1284.63,1284.26,7.56994,-0.001176
507.0,7.56975,571.19,1289.68,1289.31,7.56975,-0.0013745
510.0,7.56965,571.355,1294.73,1294.35,7.57021,-0.000923023
513.0,7.57335,571.52,1299.78,1299.4,7.57156,0.000418452
516.0,7.57172,571.685,1304.83,1304.44,7.57147,0.00031994
519.0,7.57106,571.849,1309.87,1309.47,7.57152,0.000361431
522.0,7.57272,572.014,1314.91,1314.51,7.57221,0.00104292
525.0,7.57239,572.179,1319.95,1319.54,7.572,0.000824431
528.0,7.57173,572.344,1324.99,1324.57,7.57191,0.000725945
531.0,7.57003,572.509,1330.02,1329.6,7.57055,-0.000642535
534.0,7.57406,572.674,1335.05,1334.62,7.57328,0.00207898
537.0,7.5714,572.839,1340.07,1339.64,7.5714,0.000190516
540.0,7.57085,573.004,1345.1,1344.66,7.57104,-0.000177945
543.0,7.57412,573.169,1350.12,1349.67,7.57392,0.00269359
546.0,7.57347,573.333,1355.13,1354.68,7.57347,0.00223515
549.0,7.57187,573.498,1360.15,1359.69,7.57192,0.000676731
552.0,7.57331,573.663,1365.16,1364.7,7.57241,0.00115832
555.0,7.5694,573.828,1370.17,1369.7,7.57144,0.000179914
558.0,7.57267,573.993,1375.18,1374.7,7.57192,0.000651507
561.0,7.57182,574.158,1380.18,1379.7,7.57182,0.000543104
564.0,7.57131,574.323,1385.18,1384.69,7.57248,0.00119471
567.0,7.57397,574.488,1390.18,1389.69,7.57248,0.00118632
570.0,7.56989,574.652,1395.17,1394.67,7.57103,-0.000272055
573.0,7.57456,574.817,1400.16,1399.66,7.57397,0.00265957
576.0,7.57367,574.982,1405.15,1404.64,7.57397,0.00265121
579.0,7.57358,575.147,1410.14,1409.62,7.57276,0.00143288
582.0,7.57157,575.312,1415.12,1414.6,7.57118,-0.000155442
585.0,7.57238,575.477,1420.1,1419.58,7.57235,0.00100624
588.0,7.57194,575.642,1425.08,1424.55,7.57226,0.000907928
591.0,7.57052,575.807,1430.05,1429.52,7.57052,-0.000840377
594.0,7.57114,575.972,1435.02,1434.48,7.57114,-0.000228689
597.0,7.57098,576.136,1439.99,1439.45,7.57073,-0.000647006
600.0,7.57045,576.301,1444.96,1444.41,7.57045,-0.000935328
603.0,7.57038,576.466,1449.92,1449.36,7.57037,-0.00102365
606.0,7.5706,576.631,1454.88,1454.32,7.5706,-0.00080199
609.0,7.57295,576.796,1459.84,1459.27,7.57216,0.000749669
612.0,7.5701,576.961,1464.79,1464.22,7.57178,0.000361338
615.0,7.57218,577.126,1469.75,1469.16,7.57188,0.000453006
618.0,7.57149,577.291,1474.7,1474.11,7.57188,0.000444679
621.0,7.57265,577.456,1479.64,1479.05,7.57203,0.000586355
624.0,7.57019,577.62,1484.58,1483.99,7.57138,-7.19636e-05
627.0,7.57015,577.785,1489.53,1488.92,7.57202,0.000559716
630.0,7.57402,577.95,1494.46,1493.85,7.57324,0.00177139
633.0,7.5726,578.115,1499.4,1498.78,7.5726,0.00112309
636.0,7.57267,578.28,1504.33,1503.71,7.57239,0.000904797
639.0,7.57141,578.445,1509.26,1508.63,7.57223,0.00073651
642.0,7.57165,578.61,1514.19,1513.55,7.57106,-0.000441773
645.0,7.57126,578.775,1519.11,1518.47,7.57102,-0.00049006
648.0,7.57006,578.939,1524.03,1523.39,7.57045,-0.00106835
651.0,7.5726,579.104,1528.95,1528.3,7.57191,0.000383351
654.0,7.57205,579.269,1533.86,1533.21,7.57293,0.00139506
657.0,7.5743,579.434,1538.78,1538.11,7.57361,0.00206677
660.0,7.57266,579.599,1543.68,1543.02,7.57266,0.00110851
663.0,7.56999,579.764,1548.59,1547.92,7.57172,0.000160249
666.0,7.57245,579.929,1553.5,1552.82,7.57153,-3.801e-05
669.0,7.57203,580.094,1558.4,1557.71,7.57203,0.000453736
672.0,7.57286,580.259,1563.3,1562.61,7.57308,0.00149549
675.0,7.57326,580.423,1568.19,1567.5,7.57326,0.00166725
678.0,7.57085,580.588,1573.08,1572.38,7.57108,-0.000520969
681.0,7.57197,580.753,1577.97,1577.27,7.57197,0.000360812
684.0,7.57446,580.918,1582.86,1582.15,7.57305,0.0014326
687.0,7.57096,581.083,1587.75,1587.03,7.57096,-0.000665601
690.0,7.5714,581.248,1592.63,1591.91,7.56954,-0.0020938
693.0,7.56943,581.413,1597.51,1596.78,7.56954,-0.00210202
696.0,7.5713,581.578,1602.38,1601.65,7.5713,-0.000350252
699.0,7.57228,581.743,1607.26,1606.52,7.57228,0.000621514
702.0,7.57392,581.907,1612.13,1611.38,7.57235,0.000683285
705.0,7.57191,582.072,1617,1616.25,7.57235,0.000675068
708.0,7.57185,582.237,1621.86,1621.1,7.57273,0.00104686
711.0,7.57375,582.402,1626.72,1625.96,7.57291,0.00121866
714.0,7.57108,582.567,1631.58,1630.82,7.57108,-0.000619526
717.0,7.57063,582.732,1636.44,1635.67,7.57024,-0.00146771
720.0,7.56962,582.897,1641.29,1640.52,7.56962,-0.00209592
723.0,7.57194,583.062,1646.15,1645.36,7.57091,-0.000814138
726.0,7.57165,583.226,1650.99,1650.21,7.57055,-0.00118236
729.0,7.57104,583.391,1655.84,1655.05,7.57104,-0.000700598
732.0,7.57231,583.556,1660.68,1659.88,7.57231,0.000561167
735.0,7.57386,583.721,1665.52,1664.72,7.57358,0.00182294
738.0,7.57159,583.886,1670.36,1669.55,7.57159,-0.000175279
741.0,7.57181,584.051,1675.2,1674.38,7.57103,-0.000743495
744.0,7.57204,584.216,1680.03,1679.21,7.572,0.000218285
747.0,7.56962,584.381,1684.86,1684.03,7.56981,-0.00197993
750.0,7.57167,584.546,1689.69,1688.85,7.57167,-0.000128163
753.0,7.57194,584.71,1694.51,1693.67,7.57298,0.0011736
756.0,7.57377,584.875,1699.33,1698.49,7.57377,0.00195537
759.0,7.57147,585.04,1704.15,1703.3,7.57053,-0.00129284
762.0,7.57111,585.205,1708.97,1708.11,7.5703,-0.00153106
765.0,7.56956,585.37,1713.78,1712.92,7.56956,-0.00227929
768.0,7.57114,585.535,1718.59,1717.72,7.57114,-0.000707538
771.0,7.57155,585.7,1723.4,1722.53,7.57155,-0.000305793
774.0,7.57141,585.865,1728.2,1727.33,7.57141,-0.000454053
777.0,7.57177,586.03,1733.01,1732.12,7.57203,0.000157687
780.0,7.5709,586.194,1737.8,1736.92,7.5709,-0.000980571
783.0,7.57115,586.359,1742.6,1741.71,7.57115,-0.000738838
786.0,7.57284,586.524,1747.4,1746.5,7.57231,0.000412888
789.0,7.57187,586.689,1752.19,1751.28,7.57152,-0.00038538
792.0,7.57026,586.854,1756.98,1756.07,7.57126,-0.000653651
795.0,7.5731,587.019,1761.76,1760.85,7.57191,-1.19303e-05
798.0,7.57046,587.184,1766.55,1765.63,7.57187,-6.02105e-05
801.0,7.57149,587.349,1771.33,1770.4,7.57149,-0.000448496
804.0,7.57055,587.513,1776.11,1775.17,7.57122,-0.000726786
807.0,7.57034,587.678,1780.88,1779.94,7.57042,-0.00153508
810.0,7.57041,587.843,1785.65,1784.71,7.57042,-0.00154339
813.0,7.57196,588.008,1790.42,1789.48,7.57155,-0.000421717
816.0,7.56961,588.173,1795.19,1794.24,7.56961,-0.00237004
819.0,7.57027,588.338,1799.96,1799,7.57054,-0.00144839
822.0,7.57346,588.503,1804.72,1803.75,7.57196,-3.67549e-05
825.0,7.57061,588.668,1809.48,1808.51,7.57163,-0.000375114
828.0,7.57143,588.833,1814.24,1813.26,7.57143,-0.000583478
831.0,7.57178,588.997,1818.99,1818.01,7.57113,-0.000891848
834.0,7.57186,589.162,1823.74,1822.75,7.57088,-0.00115022
837.0,7.56907,589.327,1828.49,1827.5,7.56975,-0.0022886
840.0,7.56992,589.492,1833.24,1832.24,7.56992,-0.002127
843.0,7.56957,589.657,1837.98,1836.98,7.57116,-0.000895424
846.0,7.57214,589.822,1842.72,1841.71,7.57214,7.61445e-05
849.0,7.57177,589.987,1847.46,1846.44,7.57273,0.000657713
852.0,7.57399,590.152,1852.19,1851.17,7.57273,0.000649285
855.0,7.57228,590.316,1856.93,1855.9,7.57216,7.08664e-05
858.0,7.57189,590.481,1861.66,1860.63,7.57216,6.2449e-05
861.0,7.57321,590.646,1866.39,1865.35,7.57326,0.00115403
864.0,7.57448,590.811,1871.11,1870.07,7.57448,0.00236563
867.0,7.57302,590.976,1875.83,1874.79,7.57302,0.000897252
870.0,7.57325,591.141,1880.55,1879.5,7.57325,0.00111888
873.0,7.57307,591.306,1885.27,1884.21,7.57307,0.000930522
876.0,7.57183,591.471,1889.98,1888.92,7.57183,-0.000317831
879.0,7.5733,591.636,1894.7,1893.63,7.5733,0.00114381
882.0,7.57275,591.8,1899.41,1898.33,7.57295,0.000785458
885.0,7.57242,591.965,1904.11,1903.03,7.57295,0.000777113
888.0,7.57191,592.13,1908.82,1907.73,7.57332,0.00113878
891.0,7.57531,592.295,1913.52,1912.43,7.57332,0.00113044
894.0,7.57417,592.46,1918.22,1917.12,7.57417,0.00197213
897.0,7.57407,592.625,1922.91,1921.81,7.57407,0.00186383
900.0,7.57223,592.79,1927.61,1926.5,7.57223,1.5558e-05
903.0,7.57312,592.955,1932.3,1931.18,7.57253,0.000307281
906.0,7.57298,593.12,1936.98,1935.87,7.57298,0.000749008
909.0,7.57167,593.284,1941.67,1940.55,7.57278,0.000540744
912.0,7.57119,593.449,1946.35,1945.23,7.57233,8.24826e-05
915.0,7.57118,593.614,1951.03,1949.9,7.57118,-0.00107578
918.0,7.56959,593.779,1955.71,1954.57,7.56961,-0.00265405
921.0,7.57164,593.944,1960.39,1959.24,7.5714,-0.000872347
924.0,7.57316,594.109,1965.06,1963.91,7.5731,0.000819351
927.0,7.57317,594.274,1969.73,1968.58,7.5731,0.000811053
930.0,7.57316,594.439,1974.4,1973.24,7.57316,0.000862763
933.0,7.57332,594.603,1979.06,1977.9,7.57332,0.00101448
936.0,7.57118,594.768,1983.72,1982.55,7.5713,-0.00101378
939.0,7.57431,594.933,1988.38,1987.21,7.57282,0.000497937
942.0,7.57156,595.098,1993.04,1991.86,7.57156,-0.000770333
945.0,7.57102,595.263,1997.7,1996.51,7.57102,-0.00131861
948.0,7.57085,595.428,2002.35,2001.16,7.57094,-0.00140689
951.0,7.57181,595.593,2007,2005.8,7.57181,-0.000545193
954.0,7.57213,595.758,2011.64,2010.44,7.57213,-0.000233496
957.0,7.56898,595.923,2016.29,2015.08,7.56888,-0.0034918
960.0,7.56898,596.087,2020.93,2019.72,7.56898,-0.00340014
963.0,7.5723,596.252,2025.57,2024.35,7.5723,-8.85023e-05
966.0,7.57108,596.417,2030.21,2028.98,7.57259,0.000193134
969.0,7.57196,596.582,2034.84,2033.61,7.57185,-0.000555237
972.0,7.57253,596.747,2039.47,2038.24,7.57185,-0.000563615
975.0,7.57155,596.912,2044.1,2042.86,7.57155,-0.000871996
978.0,7.57219,597.077,2048.73,2047.48,7.57158,-0.000850388
981.0,7.56938,597.242,2053.35,2052.1,7.56982,-0.00261878
984.0,7.56999,597.407,2057.97,2056.72,7.56982,-0.0026272
987.0,7.57076,597.571,2062.59,2061.33,7.56977,-0.00268564
990.0,7.56795,597.736,2067.21,2065.94,7.56906,-0.0034041
993.0,7.56952,597.901,2071.82,2070.55,7.56934,-0.00313259
996.0,7.57154,598.066,2076.43,2075.15,7.57135,-0.00113111
999.0,7.5718,598.231,2081.04,2079.76,7.5718,-0.000689647
1002.0,7.57259,598.396,2085.65,2084.36,7.57259,9.18158e-05
1005.0,7.56961,598.561,2090.25,2088.96,7.57057,-0.00193672
1008.0,7.57181,598.726,2094.85,2093.55,7.57022,-0.00229528
1011.0,7.56829,598.89,2099.45,2098.15,7.56919,-0.00333385
1014.0,7.57041,599.055,2104.04,2102.74,7.56847,-0.00406245
1017.0,7.56737,599.22,2108.64,2107.32,7.56824,-0.00430109
1020.0,7.56955,599.385,2113.23,2111.91,7.56955,-0.00299976
1023.0,7.57083,599.55,2117.82,2116.49,7.56964,-0.00291847
1026.0,7.56824,599.715,2122.4,2121.07,7.56964,-0.00292719
1029.0,7.57129,599.88,2126.99,2125.65,7.57082,-0.00175595
1032.0,7.57061,600.045,2131.57,2130.23,7.57061,-0.00197471
1035.0,7.56999,600.21,2136.14,2134.8,7.56999,-0.0026035
1038.0,7.56992,600.374,2140.72,2139.37,7.57023,-0.00237231
1041.0,7.57267,600.539,2145.29,2143.94,7.57132,-0.00129114
1044.0,7.56642,600.704,2149.86,2148.5,7.56786,-0.00475998
1047.0,7.5683,600.869,2154.43,2153.07,7.56778,-0.00484886
1050.0,7.56665,601.034,2159,2157.63,7.56778,-0.00485779
1053.0,7.5697,601.199,2163.56,2162.18,7.56876,-0.00388676
1056.0,7.57031,601.364,2168.12,2166.74,7.57031,-0.00234576
1059.0,7.57056,601.529,2172.68,2171.29,7.57056,-0.00210478
1062.0,7.57031,601.694,2177.24,2175.84,7.57031,-0.00236383
1065.0,7.56908,601.858,2181.79,2180.39,7.56908,-0.0036029
1068.0,7.56872,602.023,2186.34,2184.94,7.56872,-0.00397201
1071.0,7.5699,602.188,2190.89,2189.48,7.5699,-0.00280114
1074.0,7.56905,602.353,2195.43,2194.02,7.5698,-0.0029103
1077.0,7.56976,602.518,2199.98,2198.56,7.5698,-0.00291949
1080.0,7.56906,602.683,2204.52,2203.09,7.56954,-0.00318869
1083.0,7.57053,602.848,2209.06,2207.63,7.57011,-0.00262793
1086.0,7.56992,603.013,2213.59,2212.16,7.56992,-0.00282719
1089.0,7.57003,603.177,2218.12,2216.69,7.56967,-0.00308648
1092.0,7.56804,603.342,2222.66,2221.21,7.56957,-0.00319579
1095.0,7.57046,603.507,2227.18,2225.73,7.56963,-0.00314513
1098.0,7.56768,603.672,2231.71,2230.25,7.56768,-0.00510451
1101.0,7.56932,603.837,2236.23,2234.77,7.56932,-0.00347392
1104.0,7.56982,604.002,2240.75,2239.29,7.56982,-0.00298336
1107.0,7.5685,604.167,2245.27,2243.8,7.5685,-0.00431284
1110.0,7.56866,604.332,2249.79,2248.31,7.5688,-0.00402236
1113.0,7.57161,604.497,2254.3,2252.82,7.56971,-0.00312191
1116.0,7.57047,604.661,2258.81,2257.33,7.57011,-0.00273148
1119.0,7.56725,604.826,2263.32,2261.83,7.56725,-0.00560108
1122.0,7.56778,604.991,2267.83,2266.33,7.56778,-0.00508073
1125.0,7.56899,605.156,2272.33,2270.83,7.56884,-0.00403041
1128.0,7.56886,605.321,2276.83,2275.33,7.56843,-0.00445014
1131.0,7.56878,605.486,2281.33,2279.82,7.56843,-0.0044599
1134.0,7.56871,605.651,2285.83,2284.31,7.56869,-0.0042097
1137.0,7.56888,605.816,2290.32,2288.8,7.56883,-0.00407954
1140.0,7.56873,605.981,2294.81,2293.28,7.56952,-0.00339942
1143.0,7.56956,606.145,2299.3,2297.77,7.56952,-0.00340934
1146.0,7.56793,606.31,2303.79,2302.25,7.56793,-0.00500929
1149.0,7.56792,606.475,2308.27,2306.73,7.56792,-0.00502928
1152.0,7.56775,606.64,2312.75,2311.21,7.5679,-0.00505932
1155.0,7.56828,606.805,2317.23,2315.68,7.56828,-0.0046894
1158.0,7.56934,606.97,2321.71,2320.15,7.56934,-0.00363951
1161.0,7.56807,607.135,2326.18,2324.62,7.56807,-0.00491967
1164.0,7.56683,607.3,2330.66,2329.09,7.56649,-0.00650986
1167.0,7.56696,607.464,2335.12,2333.55,7.56663,-0.00638012
1170.0,7.56696,607.629,2339.59,2338.01,7.56696,-0.00606043
1173.0,7.56862,607.794,2344.06,2342.47,7.56862,-0.0044108
1176.0,7.56902,607.959,2348.52,2346.93,7.56902,-0.0040212
1179.0,7.56724,608.124,2352.98,2351.38,7.56801,-0.00504164
1182.0,7.56746,608.289,2357.44,2355.84,7.56799,-0.00507213
1185.0,7.56752,608.454,2361.89,2360.29,7.56715,-0.00592266
1188.0,7.56534,608.619,2366.34,2364.73,7.56604,-0.00704325
1191.0,7.56805,608.784,2370.79,2369.18,7.56791,-0.0051839
1194.0,7.56776,608.948,2375.24,2373.62,7.56855,-0.0045546
1197.0,7.56878,609.113,2379.69,2378.06,7.56863,-0.00448534
1200.0,7.56688,609.278,2384.13,2382.5,7.56688,-0.00624613
1203.0,7.56555,609.443,2388.57,2386.93,7.56588,-0.00725697
1206.0,7.56726,609.608,2393.01,2391.37,7.56621,-0.00693787
1209.0,7.56656,609.773,2397.44,2395.8,7.56656,-0.00659884
1212.0,7.56704,609.938,2401.88,2400.23,7.56704,-0.00612987
1215.0,7.56697,610.103,2406.31,2404.65,7.56697,-0.00621095
1218.0,7.56548,610.268,2410.74,2409.08,7.56548,-0.00771209
1221.0,7.56771,610.432,2415.16,2413.5,7.56771,-0.0054933
1224.0,7.56475,610.597,2419.59,2417.92,7.56528,-0.00793455
1227.0,7.56289,610.762,2424.01,2422.33,7.56399,-0.00923588
1230.0,7.56585,610.927,2428.43,2426.75,7.56585,-0.00738728
1233.0,7.56822,611.092,2432.84,2431.16,7.5669,-0.00634876
1236.0,7.56523,611.257,2437.26,2435.57,7.56641,-0.00685029
1239.0,7.56721,611.422,2441.67,2439.97,7.56641,-0.00686189
1242.0,7.56685,611.587,2446.08,2444.38,7.56685,-0.00643355
1245.0,7.56545,611.751,2450.48,2448.78,7.56597,-0.00732526
1248.0,7.5679,611.916,2454.89,2453.18,7.56586,-0.00744703
1251.0,7.56408,612.081,2459.29,2457.58,7.56435,-0.00896887
1254.0,7.56701,612.246,2463.69,2461.97,7.56644,-0.00689078
1257.0,7.56562,612.411,2468.09,2466.36,7.56562,-0.00772276
1260.0,7.56419,612.576,2472.48,2470.75,7.56392,-0.00943481
1263.0,7.56351,612.741,2476.88,2475.14,7.56351,-0.00985694
1266.0,7.56359,612.906,2481.27,2479.53,7.56359,-0.00978916
1269.0,7.56331,613.071,2485.66,2483.91,7.56331,-0.0100815
1272.0,7.56496,613.235,2490.04,2488.29,7.56496,-0.00844388
1275.0,7.56464,613.4,2494.43,2492.67,7.56457,-0.00884635
1278.0,7.56303,613.565,2498.81,2497.05,7.56303,-0.0103989
1281.0,7.56374,613.73,2503.18,2501.42,7.56275,-0.0106916
1284.0,7.56416,613.895,2507.56,2505.79,7.56416,-0.0092943
1287.0,7.5675,614.06,2511.93,2510.16,7.56643,-0.00703712
1290.0,7.56362,614.225,2516.31,2514.53,7.56461,-0.00887
1293.0,7.56589,614.39,2520.68,2518.89,7.56589,-0.00760296
1296.0,7.56452,614.555,2525.04,2523.25,7.56596,-0.007546
1299.0,7.56629,614.719,2529.41,2527.61,7.56544,-0.0080791
1302.0,7.56293,614.884,2533.77,2531.97,7.56382,-0.00971228
1305.0,7.56551,615.049,2538.13,2536.32,7.56397,-0.00957555
1308.0,7.56225,615.214,2542.49,2540.68,7.56277,-0.0107889
1311.0,7.56305,615.379,2546.84,2545.03,7.56305,-0.0105224
1314.0,7.56343,615.544,2551.2,2549.37,7.56343,-0.0101559
1317.0,7.56419,615.709,2555.55,2553.72,7.56406,-0.00953953
1320.0,7.56365,615.874,2559.89,2558.06,7.56365,-0.00996325
1323.0,7.56336,616.038,2564.24,2562.4,7.56352,-0.0101071
1326.0,7.56535,616.203,2568.58,2566.74,7.56432,-0.00932096
1329.0,7.56177,616.368,2572.92,2571.08,7.5635,-0.0101549
1332.0,7.56449,616.533,2577.26,2575.41,7.5637,-0.00996903
1335.0,7.56365,616.698,2581.6,2579.74,7.5637,-0.0099832
1338.0,7.56706,616.863,2585.93,2584.07,7.56546,-0.00823746
1341.0,7.56271,617.028,2590.27,2588.4,7.56362,-0.0100918
1344.0,7.56263,617.193,2594.6,2592.73,7.56263,-0.0110962
1347.0,7.56351,617.358,2598.92,2597.05,7.56284,-0.0109007
1350.0,7.5637,617.522,2603.25,2601.37,7.56328,-0.0104754
1353.0,7.56159,617.687,2607.57,2605.69,7.56328,-0.0104901
1356.0,7.56502,617.852,2611.89,2610,7.56502,-0.00876488
1359.0,7.56237,618.017,2616.21,2614.31,7.56237,-0.0114298
1362.0,7.56205,618.182,2620.53,2618.63,7.56205,-0.0117648
1365.0,7.56231,618.347,2624.84,2622.93,7.56329,-0.0105399
1368.0,7.56222,618.512,2629.15,2627.24,7.56222,-0.0116251
1371.0,7.5596,618.677,2633.46,2631.54,7.56039,-0.0134704
1374.0,7.56147,618.842,2637.77,2635.85,7.5607,-0.0131758
1377.0,7.5629,619.006,2642.07,2640.15,7.56221,-0.0116813
1380.0,7.56179,619.171,2646.37,2644.44,7.56179,-0.012117
1383.0,7.55998,619.336,2650.67,2648.74,7.56139,-0.0125327
1386.0,7.56213,619.501,2654.97,2653.03,7.56213,-0.0118086
1389.0,7.56434,619.666,2659.26,2657.32,7.56433,-0.00962457
1392.0,7.55939,619.831,2663.56,2661.61,7.56078,-0.0131906
1395.0,7.56261,619.996,2667.85,2665.89,7.56235,-0.0116368
1398.0,7.56296,620.161,2672.14,2670.18,7.56296,-0.0110431
1401.0,7.56177,620.325,2676.42,2674.46,7.56177,-0.0122495
1404.0,7.5607,620.49,2680.71,2678.74,7.56034,-0.013696
1407.0,7.55881,620.655,2684.99,2683.01,7.56034,-0.0137126
1410.0,7.56306,620.82,2689.27,2687.29,7.56186,-0.0122094
1413.0,7.56121,620.985,2693.54,2691.56,7.56142,-0.0126662
1416.0,7.56171,621.15,2697.82,2695.83,7.56116,-0.0129432
1419.0,7.55934,621.315,2702.09,2700.1,7.55994,-0.0141803
1422.0,7.56167,621.48,2706.36,2704.36,7.56155,-0.0125875
1425.0,7.56067,621.645,2710.63,2708.63,7.5611,-0.0130549
1428.0,7.56069,621.809,2714.89,2712.89,7.5606,-0.0135723
1431.0,7.5614,621.974,2719.16,2717.14,7.5614,-0.0127899
1434.0,7.55993,622.139,2723.42,2721.4,7.55993,-0.0142776
1437.0,7.56117,622.304,2727.68,2725.65,7.56033,-0.0138954
1440.0,7.55971,622.469,2731.93,2729.91,7.56084,-0.0134033
1443.0,7.5616,622.634,2736.19,2734.16,7.56155,-0.0127114
1446.0,7.56143,622.799,2740.44,2738.4,7.56143,-0.0128496
1449.0,7.55955,622.964,2744.69,2742.65,7.55959,-0.0147079
1452.0,7.55871,623.128,2748.94,2746.89,7.55975,-0.0145663
1455.0,7.56128,623.293,2753.18,2751.13,7.55975,-0.0145848
1458.0,7.55838,623.458,2757.43,2755.37,7.55918,-0.0151735
1461.0,7.56099,623.623,2761.67,2759.61,7.56099,-0.0133824
1464.0,7.5628,623.788,2765.91,2763.84,7.5612,-0.0131913
1467.0,7.55937,623.953,2770.14,2768.07,7.56016,-0.0142504
1470.0,7.55819,624.118,2774.38,2772.3,7.55892,-0.0155096
1473.0,7.55865,624.283,2778.61,2776.53,7.55865,-0.0157989
1476.0,7.55672,624.448,2782.84,2780.75,7.55804,-0.0164284
1479.0,7.55938,624.612,2787.07,2784.97,7.55938,-0.015108
1482.0,7.55991,624.777,2791.29,2789.19,7.55991,-0.0145978
1485.0,7.55745,624.942,2795.51,2793.41,7.5581,-0.0164277
1488.0,7.55814,625.107,2799.73,2797.63,7.5581,-0.0164477
1491.0,7.56135,625.272,2803.95,2801.84,7.56057,-0.0139979
1494.0,7.56067,625.437,2808.17,2806.05,7.56153,-0.0130582
1497.0,7.5606,625.602,2812.38,2810.26,7.5606,-0.0140087
1500.0,7.55855,625.767,2816.59,2814.47,7.55855,-0.0160793
1503.0,7.55817,625.932,2820.8,2818.67,7.55817,-0.01648
1506.0,7.55892,626.096,2825.01,2822.88,7.55892,-0.0157508
1509.0,7.55977,626.261,2829.22,2827.08,7.55977,-0.0149218
1512.0,7.55906,626.426,2833.42,2831.28,7.55946,-0.015253
1515.0,7.55995,626.591,2837.62,2835.47,7.55951,-0.0152242
1518.0,7.55939,626.756,2841.82,2839.67,7.55939,-0.0153656
1521.0,7.55932,626.921,2846.02,2843.86,7.55995,-0.0148272
1524.0,7.56073,627.086,2850.21,2848.05,7.56059,-0.0142089
1527.0,7.55966,627.251,2854.4,2852.23,7.55966,-0.0151607
1530.0,7.55904,627.415,2858.59,2856.42,7.55904,-0.0158026
1533.0,7.55764,627.58,2862.78,2860.6,7.55764,-0.0172247
1536.0,7.55977,627.745,2866.96,2864.78,7.55952,-0.015367
1539.0,7.55797,627.91,2871.15,2868.96,7.55798,-0.0169294
1542.0,7.55945,628.075,2875.33,2873.14,7.55945,-0.0154819
1545.0,7.56081,628.24,2879.51,2877.31,7.5601,-0.0148546
1548.0,7.55929,628.405,2883.68,2881.48,7.55907,-0.0159074
1551.0,7.55625,628.57,2887.86,2885.65,7.55776,-0.0172404
1554.0,7.56196,628.735,2892.03,2889.82,7.55956,-0.0154635
1557.0,7.56101,628.899,2896.2,2893.98,7.56065,-0.0143967
1560.0,7.56131,629.064,2900.37,2898.15,7.56131,-0.0137601
1563.0,7.55814,629.229,2904.53,2902.31,7.55814,-0.0169536
1566.0,7.55812,629.394,2908.7,2906.47,7.55705,-0.0180672
1569.0,7.55587,629.559,2912.86,2910.62,7.55678,-0.018361
1572.0,7.56088,629.724,2917.02,2914.78,7.56088,-0.014285
1575.0,7.56143,629.889,2921.17,2918.93,7.56143,-0.0137591
1578.0,7.55708,630.054,2925.33,2923.08,7.55882,-0.0163934
1581.0,7.56047,630.219,2929.48,2927.23,7.55917,-0.0160678
1584.0,7.55875,630.383,2933.63,2931.37,7.55882,-0.0164423
1587.0,7.5591,630.548,2937.78,2935.52,7.5591,-0.016187
1590.0,7.56067,630.713,2941.92,2939.66,7.56029,-0.0150218
1593.0,7.56183,630.878,2946.07,2943.8,7.56029,-0.0150468
1596.0,7.55923,631.043,2950.21,2947.93,7.55925,-0.0161119
1599.0,7.55859,631.208,2954.35,2952.07,7.55873,-0.0166571
1602.0,7.56067,631.373,2958.49,2956.2,7.56067,-0.0147425
1605.0,7.56117,631.538,2962.62,2960.33,7.56117,-0.014268
1608.0,7.55746,631.702,2966.76,2964.46,7.55822,-0.0172437
1611.0,7.5572,631.867,2970.89,2968.58,7.5581,-0.0173895
1614.0,7.56044,632.032,2975.02,2972.71,7.5581,-0.0174155
1617.0,7.55901,632.197,2979.14,2976.83,7.55975,-0.0157916
1620.0,7.55954,632.362,2983.27,2980.95,7.55954,-0.0160279
1623.0,7.55938,632.527,2987.39,2985.07,7.55928,-0.0163143
1626.0,7.55763,632.692,2991.51,2989.18,7.55895,-0.0166708
1629.0,7.55967,632.857,2995.63,2993.3,7.55858,-0.0170676
1632.0,7.5589,633.022,2999.74,2997.41,7.55858,-0.0170944
1635.0,7.55786,633.186,3003.86,3001.52,7.55767,-0.0180314
1638.0,7.55872,633.351,3007.97,3005.62,7.55817,-0.0175586
1641.0,7.55731,633.516,3012.08,3009.73,7.55801,-0.017746
1644.0,7.55781,633.681,3016.18,3013.83,7.5579,-0.0178835
1647.0,7.55921,633.846,3020.29,3017.93,7.55885,-0.0169612
1650.0,7.5586,634.011,3024.39,3022.03,7.55885,-0.016989
1653.0,7.55861,634.176,3028.49,3026.13,7.55878,-0.0170869
1656.0,7.55988,634.341,3032.59,3030.22,7.55988,-0.0160151
1659.0,7.56097,634.506,3036.69,3034.31,7.56117,-0.0147533
1662.0,7.56115,634.67,3040.78,3038.4,7.5606,-0.0153517
1665.0,7.5602,634.835,3044.88,3042.49,7.56016,-0.0158203
1668.0,7.55816,635,3048.97,3046.57,7.5589,-0.017109
1671.0,7.55995,635.165,3053.05,3050.66,7.55866,-0.0173778
1674.0,7.5593,635.33,3057.14,3054.74,7.55866,-0.0174068
1677.0,7.55846,635.495,3061.22,3058.82,7.55925,-0.0168459
1680.0,7.55864,635.66,3065.3,3062.89,7.5594,-0.0167252
1683.0,7.55871,635.825,3069.38,3066.97,7.55871,-0.0174447
1686.0,7.55808,635.989,3073.46,3071.04,7.55723,-0.0189543
1689.0,7.55719,636.154,3077.54,3075.11,7.55719,-0.019024
1692.0,7.55951,636.319,3081.61,3079.18,7.55876,-0.017484
1695.0,7.55923,636.484,3085.68,3083.25,7.55923,-0.0170441
1698.0,7.56147,636.649,3089.75,3087.31,7.56138,-0.0149243
1701.0,7.56064,636.814,3093.82,3091.37,7.56064,-0.0156947
1704.0,7.55886,636.979,3097.88,3095.44,7.55886,-0.0175052
1707.0,7.55932,637.144,3101.95,3099.49,7.55932,-0.0170759
1710.0,7.55806,637.309,3106.01,3103.55,7.55806,-0.0183668
1713.0,7.55647,637.473,3110.06,3107.6,7.5576,-0.0188578
1716.0,7.5572,637.638,3114.12,3111.65,7.5572,-0.019289
1719.0,7.55919,637.803,3118.18,3115.7,7.55867,-0.0178503
1722.0,7.55681,637.968,3122.23,3119.75,7.55738,-0.0191718
1725.0,7.55806,638.133,3126.28,3123.8,7.55726,-0.0193235
1728.0,7.55754,638.298,3130.33,3127.84,7.55675,-0.0198654
1731.0,7.55633,638.463,3134.37,3131.88,7.55739,-0.0192574
1734.0,7.55947,638.628,3138.42,3135.92,7.55883,-0.0178496
1737.0,7.56038,638.793,3142.46,3139.96,7.55978,-0.016932
1740.0,7.55955,638.957,3146.5,3143.99,7.55955,-0.0171945
1743.0,7.55656,639.122,3150.53,3148.03,7.55822,-0.0185572
1746.0,7.56038,639.287,3154.57,3152.06,7.55886,-0.0179501
1749.0,7.55923,639.452,3158.6,3156.09,7.55902,-0.0178231
1752.0,7.55946,639.617,3162.63,3160.11,7.55902,-0.0178562
1755.0,7.55883,639.782,3166.66,3164.14,7.55843,-0.0184796
1758.0,7.55679,639.947,3170.69,3168.16,7.5572,-0.0197431
1761.0,7.55804,640.112,3174.72,3172.18,7.55762,-0.0193567
1764.0,7.55855,640.276,3178.74,3176.2,7.55855,-0.0184606
1767.0,7.56072,640.441,3182.76,3180.22,7.55929,-0.0177546
1770.0,7.5588,640.606,3186.78,3184.23,7.55784,-0.0192387
1773.0,7.55581,640.771,3190.8,3188.24,7.55727,-0.0198431
1776.0,7.55665,640.936,3194.81,3192.25,7.55667,-0.0204776
1779.0,7.55696,641.101,3198.82,3196.26,7.5572,-0.0199823
1782.0,7.55995,641.266,3202.83,3200.27,7.55964,-0.0175772
1785.0,7.5578,641.431,3206.84,3204.27,7.5578,-0.0194522
1788.0,7.55668,641.596,3210.85,3208.27,7.55677,-0.0205175
1791.0,7.55777,641.76,3214.85,3212.27,7.55699,-0.0203328
1794.0,7.55839,641.925,3218.86,3216.27,7.55839,-0.0189684
1797.0,7.55914,642.09,3222.86,3220.27,7.55914,-0.0182542
1800.0,7.55684,642.255,3226.85,3224.26,7.55728,-0.0201501
1803.0,7.55875,642.42,3230.85,3228.25,7.55875,-0.0187162
1806.0,7.56111,642.585,3234.85,3232.24,7.55976,-0.0177425
1809.0,7.55469,642.75,3238.84,3236.23,7.55726,-0.0202789
1812.0,7.5582,642.915,3242.83,3240.21,7.5582,-0.0193755
1815.0,7.55984,643.08,3246.82,3244.2,7.55961,-0.0180023
1818.0,7.55659,643.244,3250.8,3248.18,7.55697,-0.0206792
1821.0,7.55974,643.409,3254.79,3252.16,7.55768,-0.0200064
1824.0,7.55692,643.574,3258.77,3256.14,7.55738,-0.0203437
1827.0,7.55849,643.739,3262.75,3260.11,7.55849,-0.0192712
1830.0,7.55809,643.904,3266.73,3264.08,7.55926,-0.0185388
1833.0,7.55951,644.069,3270.7,3268.06,7.55931,-0.0185267
1836.0,7.55769,644.234,3274.67,3272.03,7.55804,-0.0198347
1839.0,7.55941,644.399,3278.65,3275.99,7.55902,-0.0188929
1842.0,7.55924,644.563,3282.62,3279.96,7.55931,-0.0186412
1845.0,7.56107,644.728,3286.58,3283.92,7.56046,-0.0175297
1848.0,7.56072,644.893,3290.55,3287.88,7.56107,-0.0169584
1851.0,7.56344,645.058,3294.51,3291.84,7.56284,-0.0152273
1854.0,7.56183,645.223,3298.48,3295.8,7.56266,-0.0154462
1857.0,7.56538,645.388,3302.43,3299.75,7.56422,-0.0139253
1860.0,7.56262,645.553,3306.39,3303.71,7.56323,-0.0149545
1863.0,7.56713,645.718,3310.35,3307.66,7.56713,-0.0110939
1866.0,7.56858,645.883,3314.3,3311.61,7.56845,-0.00981337
1869.0,7.56954,646.047,3318.25,3315.55,7.56954,-0.00876292
1872.0,7.57247,646.212,3322.2,3319.5,7.57247,-0.00587256
1875.0,7.5754,646.377,3326.15,3323.44,7.57535,-0.00303225
1878.0,7.57695,646.542,3330.1,3327.38,7.57695,-0.00147196
1881.0,7.58105,646.707,3334.04,3331.32,7.58105,0.0025883
1884.0,7.59094,646.872,3337.98,3335.26,7.59094,0.0124386
1887.0,7.59806,647.037,3341.92,3339.19,7.59806,0.019519
1890.0,7.60588,647.202,3345.86,3343.13,7.60588,0.0272996
1893.0,7.61899,647.367,3349.79,3347.06,7.61899,0.0403704
1896.0,7.62327,647.531,3353.73,3350.99,7.6231,0.0444416
1899.0,7.62184,647.696,3357.66,3354.91,7.62307,0.0443732
1902.0,7.61778,647.861,3361.59,3358.84,7.61778,0.0390452
1905.0,7.60335,648.026,3365.51,3362.76,7.60335,0.0245775
1908.0,7.5972,648.191,3369.44,3366.68,7.59718,0.0183701
1911.0,7.5925,648.356,3373.36,3370.6,7.59406,0.0152128
1914.0,7.59804,648.521,3377.28,3374.52,7.59804,0.0191556
1917.0,7.61159,648.686,3381.2,3378.43,7.61159,0.0326687
1920.0,7.62538,648.85,3385.12,3382.34,7.62538,0.046422
1923.0,7.62433,649.015,3389.04,3386.26,7.62433,0.0453357
1926.0,7.61131,649.18,3392.95,3390.16,7.61131,0.0322798
1929.0,7.60638,649.345,3396.86,3394.07,7.6068,0.0277343
1932.0,7.61082,649.51,3400.77,3397.98,7.61082,0.0317189
1935.0,7.62055,649.675,3404.68,3401.88,7.61898,0.0398439
1938.0,7.62096,649.84,3408.58,3405.78,7.62096,0.0417892
1941.0,7.61887,650.005,3412.49,3409.68,7.62002,0.0408149
1944.0,7.62314,650.17,3416.39,3413.58,7.62314,0.043901
1947.0,7.64079,650.334,3420.29,3417.47,7.64079,0.0615175
1950.0,7.65539,650.499,3424.19,3421.36,7.65539,0.0760845
1953.0,7.65532,650.664,3428.08,3425.26,7.65659,0.0772522
1956.0,7.65365,650.829,3431.98,3429.14,7.65365,0.0742806
1959.0,7.64929,650.994,3435.87,3433.03,7.65068,0.0712796
1962.0,7.65371,651.159,3439.76,3436.92,7.65371,0.0742793
1965.0,7.66502,651.324,3443.64,3440.8,7.66502,0.0855597
1968.0,7.68291,651.489,3447.53,3444.68,7.68291,0.103421
1971.0,7.70239,651.653,3451.41,3448.56,7.70239,0.122873
1974.0,7.70629,651.818,3455.3,3452.44,7.70629,0.126746
1977.0,7.6943,651.983,3459.18,3456.31,7.6943,0.11473
1980.0,7.67109,652.148,3463.05,3460.19,7.67292,0.0933257
1983.0,7.67564,652.313,3466.93,3464.06,7.67564,0.0960218
1986.0,7.70942,652.478,3470.8,3467.93,7.70942,0.129779
1989.0,7.70367,652.643,3474.68,3471.8,7.70367,0.124007
1992.0,7.67839,652.808,3478.55,3475.66,7.67839,0.0987064
1995.0,7.67501,652.973,3482.41,3479.53,7.67501,0.0953066
1998.0,7.6968,653.137,3486.28,3483.39,7.6968,0.117078
2001.0,7.70551,653.302,3490.14,3487.25,7.70551,0.12577
2004.0,7.71656,653.467,3494.01,3491.1,7.71656,0.136803
2007.0,7.73109,653.632,3497.87,3494.96,7.72331,0.143538
2010.0,7.69389,653.797,3501.72,3498.81,7.69389,0.114103
2013.0,7.65719,653.962,3505.58,3502.67,7.65719,0.0773903
2016.0,7.65198,654.127,3509.44,3506.52,7.65198,0.0721678
2019.0,7.68716,654.292,3513.29,3510.36,7.68716,0.107336
2022.0,7.70326,654.457,3517.14,3514.21,7.70326,0.123425
2025.0,7.71039,654.621,3520.99,3518.06,7.70737,0.127526
2028.0,7.70719,654.786,3524.83,3521.9,7.70737,0.127517
2031.0,7.723,654.951,3528.68,3525.74,7.723,0.14314
2034.0,7.72584,655.116,3532.52,3529.58,7.72584,0.145974
2037.0,7.69929,655.281,3536.36,3533.41,7.69929,0.119419
2040.0,7.68985,655.446,3540.2,3537.25,7.69419,0.114315
2043.0,7.70445,655.611,3544.04,3541.08,7.70445,0.124572
2046.0,7.75868,655.776,3547.87,3544.91,7.73851,0.158631
2047.0,7.76909,655.831,3549.15,3546.19,7.73851,0.158631