File: data/processed/processed_data/2024-08-27/2024-08-27_magnesiumsulfateheptahydrate_n_n_y_solid_5000_0_5.csv
Pixels #,Intensity (a.u.),Wavelength (nm),Raman shift (cm-1),Raman shift (cm-1) adjusted,Filtered Intensity (a.u.),Baselined Filtered Intensity (a.u.)
0.0,1.54216,543.317,391.539,390.861,1.54013,0.00495836
3.0,1.54005,543.482,397.131,396.444,1.54013,0.00495836
6.0,1.54108,543.647,402.719,402.024,1.54108,0.00590836
9.0,1.54135,543.813,408.304,407.6,1.54154,0.00636836
12.0,1.54093,543.978,413.886,413.173,1.54093,0.00575836
15.0,1.54007,544.143,419.464,418.743,1.54048,0.00530836
18.0,1.54099,544.308,425.038,424.309,1.54064,0.00546836
21.0,1.53959,544.473,430.61,429.872,1.53946,0.00428836
24.0,1.53982,544.638,436.178,435.431,1.53982,0.00464836
27.0,1.54018,544.803,441.742,440.987,1.54021,0.00503836
30.0,1.54066,544.968,447.304,446.54,1.54066,0.00548836
33.0,1.54091,545.133,452.861,452.089,1.54117,0.00599836
36.0,1.54123,545.299,458.416,457.635,1.54123,0.00605836
39.0,1.54188,545.464,463.967,463.177,1.54107,0.00589836
42.0,1.54011,545.629,469.515,468.717,1.54011,0.00493836
45.0,1.53992,545.794,475.059,474.252,1.54003,0.00485836
48.0,1.5419,545.959,480.6,479.785,1.54139,0.00621836
51.0,1.54118,546.124,486.138,485.314,1.54118,0.00600836
54.0,1.54073,546.289,491.673,490.84,1.54057,0.00539836
57.0,1.54044,546.454,497.204,496.362,1.54029,0.00511836
60.0,1.53978,546.62,502.731,501.882,1.5394,0.00422836
63.0,1.53923,546.785,508.256,507.397,1.5394,0.00422836
66.0,1.54001,546.95,513.777,512.91,1.54004,0.00486836
69.0,1.53948,547.115,519.294,518.419,1.54001,0.00483836
72.0,1.5406,547.28,524.809,523.925,1.54018,0.00500836
75.0,1.53955,547.445,530.32,529.427,1.53992,0.00474836
78.0,1.54064,547.61,535.827,534.926,1.54064,0.00546836
81.0,1.54088,547.775,541.332,540.422,1.54086,0.00568836
84.0,1.54023,547.94,546.833,545.915,1.54048,0.00530836
87.0,1.54131,548.106,552.331,551.404,1.54069,0.00551836
90.0,1.54034,548.271,557.825,556.89,1.54039,0.00521836
93.0,1.5396,548.436,563.316,562.373,1.54018,0.00500836
96.0,1.54083,548.601,568.804,567.852,1.54029,0.00511836
99.0,1.53963,548.766,574.289,573.328,1.53978,0.00460836
102.0,1.54022,548.931,579.77,578.801,1.54022,0.00504836
105.0,1.54196,549.096,585.248,584.27,1.54131,0.00613836
108.0,1.54045,549.261,590.722,589.737,1.54045,0.00527836
111.0,1.54031,549.426,596.194,595.199,1.54039,0.00521836
114.0,1.54005,549.592,601.662,600.659,1.54063,0.00545836
117.0,1.54061,549.757,607.127,606.115,1.54061,0.00543836
120.0,1.54098,549.922,612.588,611.568,1.54058,0.00540836
123.0,1.54067,550.087,618.046,617.018,1.54064,0.00546836
126.0,1.53989,550.252,623.501,622.465,1.54058,0.00540836
129.0,1.54138,550.417,628.953,627.908,1.54128,0.00610836
132.0,1.53858,550.582,634.401,633.348,1.53864,0.00346836
135.0,1.53936,550.747,639.846,638.785,1.53875,0.00357838
138.0,1.5388,550.912,645.288,644.218,1.53967,0.00449842
141.0,1.53966,551.078,650.727,649.648,1.53997,0.00479847
144.0,1.54034,551.243,656.162,655.075,1.54034,0.00516852
147.0,1.53979,551.408,661.594,660.499,1.53997,0.00479857
150.0,1.5413,551.573,667.023,665.919,1.54021,0.00503862
153.0,1.53837,551.738,672.449,671.337,1.53941,0.00423867
156.0,1.5398,551.903,677.871,676.751,1.53967,0.00449873
159.0,1.53939,552.068,683.29,682.161,1.53933,0.00415879
162.0,1.53857,552.233,688.706,687.569,1.53895,0.00377887
165.0,1.53916,552.398,694.119,692.973,1.53939,0.00421896
168.0,1.53989,552.564,699.528,698.374,1.53952,0.00434906
171.0,1.53989,552.729,704.934,703.772,1.53989,0.00471917
174.0,1.53976,552.894,710.337,709.166,1.53976,0.00458927
177.0,1.5379,553.059,715.737,714.558,1.53867,0.00349937
180.0,1.53933,553.224,721.133,719.946,1.53933,0.0041595
183.0,1.54021,553.389,726.527,725.331,1.53964,0.00446963
186.0,1.53932,553.554,731.917,730.712,1.53978,0.00460976
189.0,1.54038,553.719,737.304,736.091,1.53997,0.00479989
192.0,1.5402,553.885,742.687,741.466,1.53962,0.00445002
195.0,1.53826,554.05,748.068,746.838,1.53912,0.00395016
198.0,1.53902,554.215,753.445,752.207,1.53902,0.00385031
201.0,1.53918,554.38,758.819,757.573,1.53918,0.00401048
204.0,1.5397,554.545,764.19,762.935,1.53979,0.00462066
207.0,1.53916,554.71,769.557,768.295,1.53916,0.00399085
210.0,1.539,554.875,774.922,773.651,1.539,0.00383104
213.0,1.54055,555.04,780.283,779.004,1.5405,0.00533126
216.0,1.54078,555.205,785.641,784.353,1.5405,0.00533147
219.0,1.53963,555.371,790.996,789.7,1.53999,0.00482168
222.0,1.53983,555.536,796.347,795.043,1.53983,0.0046619
225.0,1.54083,555.701,801.696,800.384,1.54047,0.00530211
228.0,1.54074,555.866,807.041,805.721,1.54074,0.00557232
231.0,1.54013,556.031,812.383,811.055,1.54061,0.00544254
234.0,1.54065,556.196,817.722,816.385,1.54027,0.00510275
237.0,1.54065,556.361,823.058,821.713,1.54065,0.00548297
240.0,1.54043,556.526,828.391,827.037,1.54084,0.00567318
243.0,1.54117,556.691,833.72,832.358,1.54117,0.00600339
246.0,1.54149,556.857,839.046,837.676,1.54125,0.00608361
249.0,1.54006,557.022,844.369,842.991,1.54074,0.00557382
252.0,1.54137,557.187,849.689,848.303,1.54109,0.00592403
255.0,1.54148,557.352,855.006,853.612,1.54106,0.00589425
258.0,1.53987,557.517,860.32,858.917,1.54043,0.00526446
261.0,1.54185,557.682,865.63,864.219,1.54161,0.00644467
264.0,1.54104,557.847,870.938,869.519,1.54067,0.00550489
267.0,1.54098,558.012,876.242,874.815,1.54098,0.0058151
270.0,1.54133,558.177,881.543,880.108,1.54133,0.00616532
273.0,1.54039,558.343,886.841,885.397,1.54039,0.00522553
276.0,1.54113,558.508,892.136,890.684,1.54122,0.00605574
279.0,1.54102,558.673,897.428,895.968,1.54114,0.00597596
282.0,1.54048,558.838,902.716,901.248,1.54073,0.00556617
285.0,1.54095,559.003,908.002,906.525,1.54073,0.00556638
288.0,1.54014,559.168,913.284,911.799,1.5402,0.0050366
291.0,1.54007,559.333,918.563,917.07,1.5402,0.00503681
294.0,1.54058,559.498,923.839,922.338,1.54058,0.00541703
297.0,1.54102,559.663,929.112,927.603,1.54085,0.00568724
300.0,1.54057,559.829,934.382,932.865,1.54083,0.00566745
303.0,1.54015,559.994,939.649,938.124,1.54074,0.00557767
306.0,1.54108,560.159,944.913,943.379,1.54108,0.00591788
309.0,1.5404,560.324,950.173,948.632,1.5404,0.00523809
312.0,1.5408,560.489,955.431,953.881,1.54054,0.00537831
315.0,1.54063,560.654,960.685,959.127,1.54063,0.00546852
318.0,1.54305,560.819,965.936,964.37,1.54305,0.00788873
321.0,1.5462,560.984,971.185,969.61,1.5462,0.0110389
324.0,1.56152,561.15,976.43,974.847,1.56152,0.0263592
327.0,1.59062,561.315,981.672,980.081,1.59062,0.0554594
330.0,1.60198,561.48,986.911,985.312,1.6008,0.0656396
333.0,1.59461,561.645,992.147,990.54,1.59461,0.0594498
336.0,1.57672,561.81,997.379,995.765,1.57672,0.04156
339.0,1.55836,561.975,1002.61,1000.99,1.55836,0.0232002
342.0,1.55375,562.14,1007.84,1006.2,1.5531,0.0179404
345.0,1.55069,562.305,1013.06,1011.42,1.55069,0.0155307
348.0,1.54606,562.47,1018.28,1016.63,1.54606,0.0109009
351.0,1.54294,562.636,1023.5,1021.84,1.54294,0.00778109
354.0,1.54132,562.801,1028.71,1027.05,1.54132,0.0061613
357.0,1.54049,562.966,1033.92,1032.25,1.54045,0.00529151
360.0,1.54093,563.131,1039.13,1037.45,1.54083,0.00567173
363.0,1.54094,563.296,1044.34,1042.65,1.54114,0.00598194
366.0,1.54246,563.461,1049.54,1047.84,1.54235,0.00719215
369.0,1.54333,563.626,1054.74,1053.03,1.54333,0.00817237
372.0,1.54489,563.791,1059.93,1058.22,1.54448,0.00932258
375.0,1.54385,563.956,1065.13,1063.41,1.54385,0.0086928
378.0,1.54352,564.122,1070.32,1068.59,1.54342,0.00826301
381.0,1.54349,564.287,1075.5,1073.77,1.54334,0.00818322
384.0,1.54206,564.452,1080.69,1078.94,1.54236,0.00720344
387.0,1.54304,564.617,1085.87,1084.12,1.54236,0.00720365
390.0,1.54231,564.782,1091.05,1089.29,1.54279,0.00763386
393.0,1.54198,564.947,1096.22,1094.45,1.54243,0.00727408
396.0,1.54274,565.112,1101.39,1099.62,1.54243,0.00727429
399.0,1.54255,565.277,1106.56,1104.78,1.5425,0.0073445
402.0,1.54191,565.442,1111.73,1109.94,1.54242,0.00726472
405.0,1.54217,565.608,1116.89,1115.09,1.54217,0.00701493
408.0,1.54167,565.773,1122.05,1120.24,1.54153,0.00637515
411.0,1.54143,565.938,1127.21,1125.39,1.54153,0.00637536
414.0,1.54173,566.103,1132.36,1130.54,1.54173,0.00657557
417.0,1.54088,566.268,1137.51,1135.68,1.54088,0.00572579
420.0,1.54219,566.433,1142.66,1140.82,1.54221,0.007056
423.0,1.54129,566.598,1147.8,1145.96,1.54163,0.00647621
426.0,1.54204,566.763,1152.94,1151.09,1.54203,0.00687643
429.0,1.54156,566.928,1158.08,1156.22,1.54156,0.00640664
432.0,1.54167,567.094,1163.22,1161.35,1.54111,0.00595686
435.0,1.54042,567.259,1168.35,1166.47,1.54042,0.00526707
438.0,1.53926,567.424,1173.48,1171.59,1.53968,0.00452728
441.0,1.54101,567.589,1178.61,1176.71,1.54001,0.0048575
444.0,1.53975,567.754,1183.73,1181.83,1.53993,0.00477771
447.0,1.53993,567.919,1188.85,1186.94,1.53993,0.00477792
450.0,1.5391,568.084,1193.97,1192.05,1.5391,0.00394814
453.0,1.53936,568.249,1199.09,1197.16,1.53936,0.00420836
456.0,1.54003,568.415,1204.2,1202.26,1.53987,0.0047186
459.0,1.53998,568.58,1209.31,1207.36,1.53988,0.00472883
462.0,1.53898,568.745,1214.41,1212.46,1.53898,0.00382907
465.0,1.53847,568.91,1219.52,1217.56,1.53847,0.00331931
468.0,1.53941,569.075,1224.62,1222.65,1.53941,0.00425958
471.0,1.53913,569.24,1229.71,1227.74,1.53913,0.00397985
474.0,1.53777,569.405,1234.81,1232.82,1.53794,0.00279013
477.0,1.53829,569.57,1239.9,1237.91,1.53794,0.00279044
480.0,1.5382,569.735,1244.99,1242.99,1.53823,0.00308077
483.0,1.53761,569.901,1250.07,1248.07,1.53814,0.00299113
486.0,1.53796,570.066,1255.15,1253.14,1.53792,0.00277151
489.0,1.53729,570.231,1260.23,1258.21,1.53729,0.00214192
492.0,1.53727,570.396,1265.31,1263.28,1.53771,0.00256235
495.0,1.53836,570.561,1270.38,1268.35,1.53836,0.0032128
498.0,1.53822,570.726,1275.45,1273.41,1.53822,0.00307328
501.0,1.53755,570.891,1280.52,1278.47,1.53753,0.00238379
504.0,1.53723,571.056,1285.59,1283.52,1.53723,0.00208431
507.0,1.53696,571.221,1290.65,1288.58,1.53696,0.00181486
510.0,1.53643,571.387,1295.71,1293.63,1.5369,0.00175542
513.0,1.53817,571.552,1300.76,1298.68,1.53817,0.003026
516.0,1.53807,571.717,1305.81,1303.72,1.53807,0.0029266
519.0,1.53775,571.882,1310.86,1308.76,1.53775,0.00260723
522.0,1.53793,572.047,1315.91,1313.8,1.53793,0.00278789
525.0,1.53902,572.212,1320.96,1318.84,1.53864,0.00349857
528.0,1.53876,572.377,1326,1323.87,1.53844,0.00329926
531.0,1.53651,572.542,1331.04,1328.9,1.53651,0.00136996
534.0,1.53816,572.707,1336.07,1333.93,1.53829,0.00315068
537.0,1.53826,572.873,1341.1,1338.96,1.53826,0.00312142
540.0,1.53709,573.038,1346.13,1343.98,1.53723,0.00209217
543.0,1.53809,573.203,1351.16,1349,1.53809,0.00295294
546.0,1.5379,573.368,1356.18,1354.01,1.5379,0.00276374
549.0,1.53678,573.533,1361.21,1359.03,1.53706,0.00192456
552.0,1.53809,573.698,1366.22,1364.04,1.53716,0.0020254
555.0,1.53601,573.863,1371.24,1369.05,1.53718,0.00204626
558.0,1.53751,574.028,1376.25,1374.05,1.53726,0.00212714
561.0,1.53754,574.193,1381.26,1379.05,1.53754,0.00240803
564.0,1.53726,574.359,1386.27,1384.05,1.5377,0.00256895
567.0,1.53773,574.524,1391.27,1389.05,1.5377,0.00256988
570.0,1.53694,574.689,1396.27,1394.04,1.53723,0.00210084
573.0,1.53768,574.854,1401.27,1399.03,1.53712,0.00199182
576.0,1.53776,575.019,1406.26,1404.02,1.53745,0.00232282
579.0,1.53725,575.184,1411.26,1409,1.53745,0.00232384
582.0,1.53726,575.349,1416.25,1413.98,1.53762,0.00249488
585.0,1.53807,575.514,1421.23,1418.96,1.53763,0.00250594
588.0,1.53758,575.68,1426.22,1423.94,1.53758,0.00245702
591.0,1.53733,575.845,1431.2,1428.91,1.53722,0.00209812
594.0,1.53604,576.01,1436.17,1433.88,1.53604,0.000919249
597.0,1.53681,576.175,1441.15,1438.85,1.53656,0.00144038
600.0,1.53736,576.34,1446.12,1443.81,1.53731,0.00219153
603.0,1.53588,576.505,1451.09,1448.78,1.53593,0.000812696
606.0,1.53633,576.67,1456.06,1453.73,1.53609,0.000973872
609.0,1.53764,576.835,1461.02,1458.69,1.53764,0.00252506
612.0,1.53652,577,1465.98,1463.64,1.53668,0.00156626
615.0,1.53664,577.166,1470.94,1468.59,1.53638,0.00126749
618.0,1.53707,577.331,1475.9,1473.54,1.53707,0.00195872
621.0,1.53741,577.496,1480.85,1478.49,1.53741,0.00229997
624.0,1.53716,577.661,1485.8,1483.43,1.53697,0.00186123
627.0,1.53613,577.826,1490.74,1488.37,1.53613,0.00102252
630.0,1.53731,577.991,1495.69,1493.3,1.53675,0.00164382
633.0,1.53605,578.156,1500.63,1498.24,1.5361,0.000995129
636.0,1.53623,578.321,1505.57,1503.17,1.53623,0.00112645
639.0,1.53598,578.486,1510.5,1508.09,1.53598,0.000877787
642.0,1.53581,578.652,1515.44,1513.02,1.53581,0.000709131
645.0,1.53673,578.817,1520.36,1517.94,1.53651,0.00141048
648.0,1.53523,578.982,1525.29,1522.86,1.53583,0.000731843
651.0,1.53645,579.147,1530.22,1527.78,1.53635,0.00125321
654.0,1.53692,579.312,1535.14,1532.69,1.53692,0.00182459
657.0,1.5364,579.477,1540.06,1537.6,1.53684,0.00174598
660.0,1.53683,579.642,1544.97,1542.51,1.53672,0.00162739
663.0,1.53599,579.807,1549.88,1547.42,1.53628,0.00118882
666.0,1.53669,579.972,1554.79,1552.32,1.53626,0.00117025
669.0,1.53604,580.138,1559.7,1557.22,1.53604,0.000951695
672.0,1.53632,580.303,1564.61,1562.11,1.53632,0.00123315
675.0,1.53594,580.468,1569.51,1567.01,1.53594,0.000854618
678.0,1.53546,580.633,1574.41,1571.9,1.53546,0.000376092
681.0,1.53671,580.798,1579.3,1576.79,1.53671,0.00162757
684.0,1.53614,580.963,1584.2,1581.67,1.53658,0.00149906
687.0,1.53672,581.128,1589.09,1586.56,1.53645,0.00137056
690.0,1.5366,581.293,1593.98,1591.44,1.53645,0.00137207
693.0,1.53517,581.458,1598.86,1596.32,1.53546,0.0003836
696.0,1.53662,581.624,1603.74,1601.19,1.53662,0.00154513
699.0,1.53744,581.789,1608.62,1606.06,1.53723,0.00215667
702.0,1.53601,581.954,1613.5,1610.93,1.53602,0.000948233
705.0,1.53637,582.119,1618.37,1615.8,1.53637,0.0012998
708.0,1.53731,582.284,1623.24,1620.66,1.53727,0.00220139
711.0,1.53697,582.449,1628.11,1625.52,1.53691,0.00184299
714.0,1.53661,582.614,1632.98,1630.38,1.53661,0.00154461
717.0,1.5361,582.779,1637.84,1635.24,1.5361,0.00103625
720.0,1.53499,582.945,1642.7,1640.09,1.53518,0.00011789
723.0,1.53606,583.11,1647.56,1644.94,1.53578,0.000719534
726.0,1.53728,583.275,1652.41,1649.79,1.53633,0.00127118
729.0,1.53555,583.44,1657.27,1654.63,1.53625,0.00119285
732.0,1.53616,583.605,1662.11,1659.47,1.53626,0.00120452
735.0,1.53685,583.77,1666.96,1664.31,1.53685,0.00179621
738.0,1.53617,583.935,1671.8,1669.15,1.53689,0.00183791
741.0,1.5367,584.1,1676.65,1673.98,1.5367,0.00164962
744.0,1.53669,584.265,1681.48,1678.81,1.53653,0.00148136
747.0,1.53616,584.431,1686.32,1683.64,1.53639,0.0013431
750.0,1.5369,584.596,1691.15,1688.46,1.53676,0.00171485
753.0,1.53651,584.761,1695.98,1693.29,1.53676,0.00171663
756.0,1.5372,584.926,1700.81,1698.11,1.53678,0.00173841
759.0,1.53596,585.091,1705.63,1702.92,1.53596,0.000920213
762.0,1.53493,585.256,1710.46,1707.74,1.5351,6.20206e-05
765.0,1.53556,585.421,1715.27,1712.55,1.53556,0.00052383
768.0,1.5364,585.586,1720.09,1717.36,1.5362,0.00116564
771.0,1.53525,585.751,1724.9,1722.16,1.53574,0.00070747
774.0,1.53683,585.917,1729.72,1726.97,1.53624,0.0012093
777.0,1.53524,586.082,1734.52,1731.77,1.53524,0.000211144
780.0,1.53445,586.247,1739.33,1736.57,1.53445,-0.000577009
783.0,1.53478,586.412,1744.13,1741.36,1.53458,-0.000445166
786.0,1.53552,586.577,1748.93,1746.16,1.53549,0.000466674
789.0,1.53544,586.742,1753.73,1750.95,1.53549,0.000468517
792.0,1.53577,586.907,1758.52,1755.73,1.53577,0.000750365
795.0,1.53578,587.072,1763.32,1760.52,1.5352,0.00018222
798.0,1.53457,587.237,1768.11,1765.3,1.53524,0.000224079
801.0,1.53552,587.403,1772.89,1770.08,1.53524,0.000225939
804.0,1.53518,587.568,1777.68,1774.86,1.53514,0.000127802
807.0,1.53362,587.733,1782.46,1779.63,1.53362,-0.00139033
810.0,1.5346,587.898,1787.24,1784.4,1.5346,-0.00040848
813.0,1.53508,588.063,1792.01,1789.17,1.53508,7.33675e-05
816.0,1.53445,588.228,1796.79,1793.93,1.53456,-0.000444784
819.0,1.53448,588.393,1801.56,1798.7,1.53456,-0.000442939
822.0,1.53491,588.558,1806.32,1803.46,1.53491,-9.10985e-05
825.0,1.53474,588.723,1811.09,1808.22,1.53475,-0.000249259
828.0,1.53528,588.889,1815.85,1812.97,1.53516,0.00016258
831.0,1.53488,589.054,1820.61,1817.72,1.5349,-9.55804e-05
834.0,1.53395,589.219,1825.37,1822.47,1.53389,-0.00110374
837.0,1.53389,589.384,1830.12,1827.22,1.53388,-0.00111191
840.0,1.53326,589.549,1834.88,1831.97,1.53371,-0.0012801
843.0,1.53508,589.714,1839.62,1836.71,1.53461,-0.000378289
846.0,1.53476,589.879,1844.37,1841.45,1.53485,-0.000136486
849.0,1.53503,590.044,1849.12,1846.18,1.53511,0.000125316
852.0,1.53557,590.21,1853.86,1850.92,1.53511,0.000127119
855.0,1.53507,590.375,1858.6,1855.65,1.53507,8.89243e-05
858.0,1.53528,590.54,1863.33,1860.38,1.53531,0.000330731
861.0,1.53579,590.705,1868.06,1865.1,1.53554,0.000562541
864.0,1.53575,590.87,1872.79,1869.83,1.53582,0.000844358
867.0,1.53528,591.035,1877.52,1874.55,1.53528,0.000306183
870.0,1.53497,591.2,1882.25,1879.27,1.53487,-0.000101989
873.0,1.53467,591.365,1886.97,1883.98,1.53467,-0.000300164
876.0,1.53482,591.53,1891.69,1888.69,1.53476,-0.000208342
879.0,1.53438,591.696,1896.41,1893.4,1.53476,-0.000206521
882.0,1.53552,591.861,1901.12,1898.11,1.53542,0.000455298
885.0,1.53576,592.026,1905.84,1902.82,1.53538,0.000417121
888.0,1.53458,592.191,1910.55,1907.52,1.53458,-0.000381052
891.0,1.53404,592.356,1915.25,1912.22,1.53404,-0.000919227
894.0,1.53449,592.521,1919.96,1916.91,1.53449,-0.000467412
897.0,1.53456,592.686,1924.66,1921.61,1.53503,7.43972e-05
900.0,1.53422,592.851,1929.36,1926.3,1.53439,-0.000563795
903.0,1.53402,593.016,1934.05,1930.99,1.53439,-0.000561992
906.0,1.53467,593.182,1938.75,1935.68,1.53467,-0.000280196
909.0,1.53581,593.347,1943.44,1940.36,1.53514,0.000191597
912.0,1.53426,593.512,1948.13,1945.04,1.53426,-0.000686607
915.0,1.53366,593.677,1952.81,1949.72,1.53393,-0.00101481
918.0,1.53331,593.842,1957.5,1954.4,1.53365,-0.00129303
921.0,1.53491,594.007,1962.18,1959.07,1.53434,-0.000601266
924.0,1.53461,594.172,1966.86,1963.74,1.53461,-0.000329502
927.0,1.53504,594.337,1971.53,1968.41,1.53479,-0.000147742
930.0,1.53436,594.502,1976.2,1973.08,1.53457,-0.000365982
933.0,1.53546,594.668,1980.87,1977.74,1.53513,0.000195775
936.0,1.53357,594.833,1985.54,1982.4,1.53357,-0.00136247
939.0,1.53548,594.998,1990.21,1987.06,1.53514,0.000209282
942.0,1.53355,595.163,1994.87,1991.71,1.53361,-0.00131897
945.0,1.53402,595.328,1999.53,1996.37,1.53402,-0.000907229
948.0,1.53475,595.493,2004.19,2001.02,1.53437,-0.000555497
951.0,1.53449,595.658,2008.84,2005.66,1.53449,-0.000433769
954.0,1.53401,595.823,2013.5,2010.31,1.53444,-0.000482043
957.0,1.53343,595.988,2018.14,2014.95,1.53343,-0.00149032
960.0,1.53263,596.154,2022.79,2019.59,1.5329,-0.00201861
963.0,1.53501,596.319,2027.44,2024.23,1.53472,-0.000196922
966.0,1.53391,596.484,2032.08,2028.86,1.53472,-0.000195237
969.0,1.53472,596.649,2036.72,2033.5,1.53457,-0.000343558
972.0,1.5351,596.814,2041.35,2038.13,1.53469,-0.000221882
975.0,1.5343,596.979,2045.99,2042.75,1.53457,-0.000340208
978.0,1.53452,597.144,2050.62,2047.38,1.53452,-0.000388537
981.0,1.5335,597.309,2055.25,2052,1.53353,-0.00137687
984.0,1.5343,597.475,2059.88,2056.62,1.53422,-0.000685216
987.0,1.53404,597.64,2064.5,2061.24,1.53403,-0.000873567
990.0,1.5332,597.805,2069.12,2065.85,1.53345,-0.00145193
993.0,1.53284,597.97,2073.74,2070.46,1.53314,-0.0017603
996.0,1.53472,598.135,2078.36,2075.07,1.53396,-0.000938687
999.0,1.53374,598.3,2082.97,2079.68,1.53439,-0.000507082
1002.0,1.53482,598.465,2087.58,2084.28,1.53439,-0.000505483
1005.0,1.53325,598.63,2092.19,2088.88,1.53354,-0.00135389
1008.0,1.53384,598.795,2096.8,2093.48,1.53406,-0.000832309
1011.0,1.53537,598.961,2101.4,2098.08,1.53427,-0.000620736
1014.0,1.53395,599.126,2106,2102.67,1.53395,-0.000939165
1017.0,1.53302,599.291,2110.6,2107.27,1.5337,-0.0011876
1020.0,1.53434,599.456,2115.2,2111.85,1.53409,-0.00079605
1023.0,1.53379,599.621,2119.79,2116.44,1.53381,-0.0010745
1026.0,1.5342,599.786,2124.38,2121.02,1.5342,-0.000682967
1029.0,1.53428,599.951,2128.97,2125.61,1.53457,-0.000311436
1032.0,1.53441,600.116,2133.56,2130.18,1.53457,-0.000309909
1035.0,1.53436,600.281,2138.14,2134.76,1.53382,-0.00105838
1038.0,1.53342,600.447,2142.72,2139.33,1.53365,-0.00122687
1041.0,1.53469,600.612,2147.3,2143.91,1.53469,-0.000185363
1044.0,1.5336,600.777,2151.88,2148.48,1.53372,-0.00115386
1047.0,1.53357,600.942,2156.45,2153.04,1.53357,-0.00130237
1050.0,1.53338,601.107,2161.02,2157.61,1.53376,-0.00111089
1053.0,1.53417,601.272,2165.59,2162.17,1.53392,-0.000949416
1056.0,1.53393,601.437,2170.15,2166.73,1.53415,-0.000717954
1059.0,1.53414,601.602,2174.72,2171.28,1.53414,-0.000726498
1062.0,1.53434,601.767,2179.28,2175.84,1.53434,-0.00052505
1065.0,1.53339,601.933,2183.84,2180.39,1.53377,-0.00109361
1068.0,1.53405,602.098,2188.39,2184.94,1.5339,-0.000962177
1071.0,1.53414,602.263,2192.95,2189.48,1.53424,-0.000620754
1074.0,1.53449,602.428,2197.5,2194.03,1.53449,-0.000369335
1077.0,1.53362,602.593,2202.04,2198.57,1.53401,-0.00084792
1080.0,1.53436,602.758,2206.59,2203.11,1.53443,-0.000426513
1083.0,1.53523,602.923,2211.13,2207.64,1.53523,0.000374891
1086.0,1.53586,603.088,2215.67,2212.18,1.53538,0.000526298
1089.0,1.53411,603.253,2220.21,2216.71,1.53434,-0.000512291
1092.0,1.53344,603.419,2224.75,2221.24,1.53391,-0.000940885
1095.0,1.5336,603.584,2229.28,2225.76,1.53432,-0.00052949
1098.0,1.53516,603.749,2233.81,2230.29,1.53458,-0.0002681
1101.0,1.53501,603.914,2238.34,2234.81,1.53478,-6.6712e-05
1104.0,1.53388,604.079,2242.87,2239.33,1.53388,-0.000965324
1107.0,1.53362,604.244,2247.39,2243.84,1.53362,-0.00122394
1110.0,1.5348,604.409,2251.91,2248.36,1.53475,-9.257e-05
1113.0,1.5363,604.574,2256.43,2252.87,1.53522,0.000378801
1116.0,1.5341,604.74,2260.95,2257.38,1.53494,0.000100179
1119.0,1.53409,604.905,2265.46,2261.88,1.53409,-0.000748446
1122.0,1.53397,605.07,2269.97,2266.39,1.53397,-0.000867079
1125.0,1.5341,605.235,2274.48,2270.89,1.53443,-0.000405721
1128.0,1.53419,605.4,2278.99,2275.39,1.53419,-0.000644369
1131.0,1.53447,605.565,2283.49,2279.89,1.53412,-0.000713022
1134.0,1.53452,605.73,2287.99,2284.38,1.53415,-0.000681681
1137.0,1.53417,605.895,2292.49,2288.87,1.53417,-0.000660345
1140.0,1.53416,606.06,2296.99,2293.36,1.53416,-0.000669013
1143.0,1.53369,606.226,2301.48,2297.85,1.53399,-0.000837686
1146.0,1.53503,606.391,2305.97,2302.33,1.535,0.000173634
1149.0,1.53398,606.556,2310.46,2306.82,1.53434,-0.000485044
1152.0,1.53423,606.721,2314.95,2311.3,1.53423,-0.000593728
1155.0,1.53426,606.886,2319.43,2315.77,1.53427,-0.000552418
1158.0,1.53475,607.051,2323.91,2320.25,1.53465,-0.000171113
1161.0,1.53405,607.216,2328.39,2324.72,1.53405,-0.00076981
1164.0,1.53369,607.381,2332.87,2329.19,1.53373,-0.00108851
1167.0,1.534,607.546,2337.35,2333.66,1.534,-0.000817226
1170.0,1.5338,607.712,2341.82,2338.12,1.53408,-0.000735945
1173.0,1.53509,607.877,2346.29,2342.59,1.53429,-0.000524673
1176.0,1.53408,608.042,2350.75,2347.05,1.53435,-0.000463403
1179.0,1.53469,608.207,2355.22,2351.5,1.53435,-0.000462137
1182.0,1.53374,608.372,2359.68,2355.96,1.53374,-0.00107087
1185.0,1.53326,608.537,2364.14,2360.41,1.53326,-0.00154962
1188.0,1.53424,608.702,2368.6,2364.86,1.53424,-0.000568382
1191.0,1.53303,608.867,2373.05,2369.31,1.53303,-0.00177715
1194.0,1.53552,609.032,2377.51,2373.76,1.53552,0.000714071
1197.0,1.53495,609.198,2381.96,2378.2,1.53495,0.000145293
1200.0,1.53332,609.363,2386.4,2382.64,1.53404,-0.000763484
1203.0,1.53278,609.528,2390.85,2387.08,1.53359,-0.00121227
1206.0,1.53477,609.693,2395.29,2391.52,1.53391,-0.000891069
1209.0,1.53425,609.858,2399.73,2395.95,1.5339,-0.000899874
1212.0,1.53339,610.023,2404.17,2400.38,1.53362,-0.00117869
1215.0,1.53386,610.188,2408.61,2404.81,1.53386,-0.000937508
1218.0,1.53329,610.353,2413.04,2409.24,1.53329,-0.00150634
1221.0,1.53434,610.518,2417.47,2413.66,1.5343,-0.000495182
1224.0,1.53328,610.684,2421.9,2418.08,1.53331,-0.00148403
1227.0,1.53294,610.849,2426.33,2422.5,1.53323,-0.00156289
1230.0,1.53422,611.014,2430.75,2426.92,1.53362,-0.00117177
1233.0,1.53326,611.179,2435.17,2431.33,1.53326,-0.00153065
1236.0,1.53361,611.344,2439.59,2435.75,1.53361,-0.00117955
1239.0,1.53357,611.509,2444.01,2440.16,1.53375,-0.00103846
1242.0,1.53489,611.674,2448.42,2444.56,1.53397,-0.000817383
1245.0,1.53292,611.839,2452.83,2448.97,1.53397,-0.000816308
1248.0,1.53511,612.005,2457.24,2453.37,1.53441,-0.000375243
1251.0,1.53407,612.17,2461.65,2457.77,1.53412,-0.00066418
1254.0,1.53435,612.335,2466.06,2462.17,1.53424,-0.000543123
1257.0,1.53423,612.5,2470.46,2466.57,1.53382,-0.000962071
1260.0,1.53259,612.665,2474.86,2470.96,1.53259,-0.00219103
1263.0,1.53286,612.83,2479.26,2475.35,1.53257,-0.00221
1266.0,1.53322,612.995,2483.65,2479.74,1.53322,-0.00155899
1269.0,1.53418,613.16,2488.04,2484.12,1.53353,-0.001248
1272.0,1.53299,613.325,2492.43,2488.51,1.5332,-0.00157701
1275.0,1.5329,613.491,2496.82,2492.89,1.53327,-0.00150604
1278.0,1.53378,613.656,2501.21,2497.27,1.53362,-0.00115509
1281.0,1.53308,613.821,2505.59,2501.64,1.53325,-0.00152414
1284.0,1.53349,613.986,2509.97,2506.02,1.53349,-0.00128321
1287.0,1.53487,614.151,2514.35,2510.39,1.53428,-0.000492289
1290.0,1.53337,614.316,2518.73,2514.76,1.53406,-0.00071137
1293.0,1.53427,614.481,2523.1,2519.13,1.534,-0.000770459
1296.0,1.5335,614.646,2527.47,2523.49,1.53379,-0.000979554
1299.0,1.53406,614.811,2531.84,2527.86,1.53398,-0.000788659
1302.0,1.53293,614.977,2536.21,2532.22,1.53309,-0.00167777
1305.0,1.53417,615.142,2540.57,2536.57,1.53401,-0.000756897
1308.0,1.53361,615.307,2544.94,2540.93,1.53372,-0.00104603
1311.0,1.53302,615.472,2549.3,2545.28,1.53309,-0.00167517
1314.0,1.53351,615.637,2553.65,2549.63,1.53351,-0.00125433
1317.0,1.53414,615.802,2558.01,2553.98,1.53414,-0.000623502
1320.0,1.53408,615.967,2562.36,2558.33,1.53427,-0.000492678
1323.0,1.53405,616.132,2566.71,2562.67,1.53405,-0.000711858
1326.0,1.53418,616.297,2571.06,2567.01,1.53418,-0.000581046
1329.0,1.5338,616.463,2575.41,2571.35,1.5338,-0.000960239
1332.0,1.53303,616.628,2579.75,2575.69,1.53303,-0.00172944
1335.0,1.53284,616.793,2584.09,2580.02,1.53284,-0.00191866
1338.0,1.53342,616.958,2588.43,2584.36,1.5335,-0.00125789
1341.0,1.53405,617.123,2592.77,2588.69,1.53415,-0.000607137
1344.0,1.53509,617.288,2597.1,2593.01,1.53471,-4.63886e-05
1347.0,1.53374,617.453,2601.43,2597.34,1.53455,-0.00020564
1350.0,1.53562,617.618,2605.76,2601.66,1.53484,8.51036e-05
1353.0,1.53387,617.783,2610.09,2605.98,1.53423,-0.000524151
1356.0,1.53463,617.949,2614.42,2610.3,1.53463,-0.00012341
1359.0,1.53476,618.114,2618.74,2614.62,1.53463,-0.00012267
1362.0,1.53443,618.279,2623.06,2618.93,1.534,-0.000751933
1365.0,1.53341,618.444,2627.38,2623.24,1.53393,-0.000821201
1368.0,1.53372,618.609,2631.69,2627.55,1.53392,-0.000830477
1371.0,1.53267,618.774,2636.01,2631.86,1.53284,-0.00190976
1374.0,1.53347,618.939,2640.32,2636.16,1.53347,-0.00127906
1377.0,1.53489,619.104,2644.63,2640.47,1.53465,-9.83781e-05
1380.0,1.53397,619.27,2648.93,2644.77,1.53422,-0.000527694
1383.0,1.53356,619.435,2653.24,2649.06,1.53356,-0.00118701
1386.0,1.5344,619.6,2657.54,2653.36,1.5344,-0.000346343
1389.0,1.53514,619.765,2661.84,2657.65,1.53463,-0.000115678
1392.0,1.5326,619.93,2666.14,2661.94,1.5339,-0.000845013
1395.0,1.53604,620.095,2670.43,2666.23,1.53484,9.56398e-05
1398.0,1.53379,620.26,2674.73,2670.52,1.53379,-0.000953704
1401.0,1.53294,620.425,2679.02,2674.8,1.53316,-0.00158305
1404.0,1.53325,620.59,2683.31,2679.08,1.53317,-0.00157242
1407.0,1.53248,620.756,2687.59,2683.36,1.53314,-0.0016018
1410.0,1.53427,620.921,2691.88,2687.64,1.53336,-0.00138119
1413.0,1.53334,621.086,2696.16,2691.91,1.53336,-0.00138059
1416.0,1.53493,621.251,2700.44,2696.19,1.53465,-9.00063e-05
1419.0,1.53419,621.416,2704.71,2700.46,1.53413,-0.000609417
1422.0,1.53209,621.581,2708.99,2704.73,1.53296,-0.00177884
1425.0,1.53316,621.746,2713.26,2708.99,1.53316,-0.00157827
1428.0,1.53421,621.911,2717.53,2713.25,1.53371,-0.00102772
1431.0,1.53409,622.076,2721.8,2717.52,1.53397,-0.000767183
1434.0,1.53413,622.242,2726.06,2721.78,1.53397,-0.000766649
1437.0,1.53374,622.407,2730.33,2726.03,1.53367,-0.00106612
1440.0,1.53297,622.572,2734.59,2730.29,1.53333,-0.00140561
1443.0,1.53428,622.737,2738.85,2734.54,1.53428,-0.000455103
1446.0,1.53347,622.902,2743.1,2738.79,1.53347,-0.0012646
1449.0,1.53288,623.067,2747.36,2743.04,1.53275,-0.00198412
1452.0,1.53164,623.232,2751.61,2747.28,1.53238,-0.00235365
1455.0,1.53443,623.397,2755.86,2751.53,1.53327,-0.0014632
1458.0,1.53251,623.562,2760.11,2755.77,1.53274,-0.00199276
1461.0,1.53383,623.728,2764.35,2760,1.53361,-0.00112234
1464.0,1.53407,623.893,2768.6,2764.24,1.53352,-0.00121193
1467.0,1.53235,624.058,2772.84,2768.48,1.53273,-0.00200153
1470.0,1.53241,624.223,2777.07,2772.71,1.53245,-0.00228115
1473.0,1.53237,624.388,2781.31,2776.94,1.53245,-0.00228079
1476.0,1.53337,624.553,2785.54,2781.16,1.53337,-0.00136045
1479.0,1.5339,624.718,2789.78,2785.39,1.5339,-0.00083012
1482.0,1.53363,624.883,2794.01,2789.61,1.53363,-0.0010998
1485.0,1.53269,625.048,2798.23,2793.83,1.53252,-0.00220949
1488.0,1.53223,625.214,2802.46,2798.05,1.53249,-0.0022392
1491.0,1.53419,625.379,2806.68,2802.27,1.53353,-0.00119893
1494.0,1.53273,625.544,2810.9,2806.48,1.53273,-0.00199867
1497.0,1.53276,625.709,2815.12,2810.7,1.53276,-0.00196843
1500.0,1.53227,625.874,2819.34,2814.9,1.53227,-0.0024582
1503.0,1.53252,626.039,2823.55,2819.11,1.53252,-0.00220799
1506.0,1.53337,626.204,2827.76,2823.32,1.53329,-0.00143781
1509.0,1.53288,626.369,2831.97,2827.52,1.53299,-0.00173763
1512.0,1.53296,626.535,2836.18,2831.72,1.53296,-0.00176747
1515.0,1.53321,626.7,2840.38,2835.92,1.53292,-0.00180733
1518.0,1.53197,626.865,2844.59,2840.12,1.53244,-0.00228721
1521.0,1.53343,627.03,2848.79,2844.31,1.53343,-0.0012971
1524.0,1.53337,627.195,2852.99,2848.5,1.53343,-0.00129701
1527.0,1.53339,627.36,2857.18,2852.69,1.53319,-0.00153693
1530.0,1.53203,627.525,2861.38,2856.88,1.5326,-0.00212686
1533.0,1.53273,627.69,2865.57,2861.07,1.53263,-0.00209682
1536.0,1.53362,627.855,2869.76,2865.25,1.53318,-0.00154679
1539.0,1.53356,628.021,2873.95,2869.43,1.53356,-0.00116678
1542.0,1.53301,628.186,2878.13,2873.61,1.53312,-0.00160677
1545.0,1.53429,628.351,2882.31,2877.78,1.53421,-0.000516784
1548.0,1.53245,628.516,2886.5,2881.96,1.53284,-0.0018868
1551.0,1.53313,628.681,2890.67,2886.13,1.53299,-0.00173683
1554.0,1.53345,628.846,2894.85,2890.3,1.53335,-0.00137688
1557.0,1.53309,629.011,2899.02,2894.47,1.53327,-0.00145694
1560.0,1.53462,629.176,2903.2,2898.63,1.53399,-0.000737018
1563.0,1.53235,629.341,2907.37,2902.8,1.53235,-0.0023771
1566.0,1.53323,629.507,2911.53,2906.96,1.53253,-0.0021972
1569.0,1.53166,629.672,2915.7,2911.12,1.53206,-0.00266731
1572.0,1.53321,629.837,2919.86,2915.28,1.53321,-0.00151745
1575.0,1.53392,630.002,2924.02,2919.43,1.53392,-0.000807604
1578.0,1.53352,630.167,2928.18,2923.58,1.53352,-0.00120776
1581.0,1.53405,630.332,2932.34,2927.73,1.53419,-0.000537935
1584.0,1.53449,630.497,2936.49,2931.88,1.53431,-0.000418111
1587.0,1.53354,630.662,2940.65,2936.03,1.53372,-0.00100829
1590.0,1.53378,630.827,2944.8,2940.17,1.53372,-0.00100848
1593.0,1.53432,630.993,2948.95,2944.31,1.53374,-0.000988674
1596.0,1.53341,631.158,2953.09,2948.45,1.53373,-0.000998877
1599.0,1.5336,631.323,2957.24,2952.59,1.5336,-0.00112909
1602.0,1.53331,631.488,2961.38,2956.72,1.53331,-0.00141931
1605.0,1.53467,631.653,2965.52,2960.86,1.53462,-0.000109548
1608.0,1.53301,631.818,2969.65,2964.99,1.53328,-0.00144979
1611.0,1.53185,631.983,2973.79,2969.12,1.53203,-0.00270004
1614.0,1.53418,632.148,2977.92,2973.24,1.53356,-0.00117031
1617.0,1.53301,632.313,2982.05,2977.37,1.53364,-0.0010906
1620.0,1.53485,632.479,2986.18,2981.49,1.53404,-0.000690897
1623.0,1.53332,632.644,2990.31,2985.61,1.53386,-0.000871198
1626.0,1.53425,632.809,2994.43,2989.73,1.53381,-0.000921508
1629.0,1.5339,632.974,2998.55,2993.84,1.5339,-0.000831826
1632.0,1.5348,633.139,3002.67,2997.96,1.53418,-0.000552151
1635.0,1.53299,633.304,3006.79,3002.07,1.53387,-0.000862479
1638.0,1.53374,633.469,3010.91,3006.18,1.53374,-0.000992818
1641.0,1.53395,633.634,3015.02,3010.29,1.53368,-0.00105317
1644.0,1.53369,633.8,3019.13,3014.39,1.53383,-0.000903523
1647.0,1.53398,633.965,3023.24,3018.49,1.53385,-0.000883889
1650.0,1.53404,634.13,3027.35,3022.59,1.53425,-0.000484262
1653.0,1.53471,634.295,3031.45,3026.69,1.53471,-2.46393e-05
1656.0,1.53553,634.46,3035.56,3030.79,1.53553,0.000794983
1659.0,1.53558,634.625,3039.66,3034.88,1.53558,0.000844613
1662.0,1.53554,634.79,3043.76,3038.98,1.53474,4.24788e-06
1665.0,1.53461,634.955,3047.85,3043.07,1.53492,0.000183885
1668.0,1.53517,635.12,3051.95,3047.15,1.53517,0.000433523
1671.0,1.53421,635.286,3056.04,3051.24,1.53421,-0.000526836
1674.0,1.53466,635.451,3060.13,3055.32,1.53412,-0.000617199
1677.0,1.53377,635.616,3064.22,3059.41,1.53397,-0.000767566
1680.0,1.5342,635.781,3068.3,3063.49,1.53456,-0.000177938
1683.0,1.53511,635.946,3072.39,3067.56,1.53477,3.16862e-05
1686.0,1.53443,636.111,3076.47,3071.64,1.53436,-0.000378688
1689.0,1.53375,636.276,3080.55,3075.71,1.53375,-0.000989067
1692.0,1.53527,636.441,3084.63,3079.78,1.53527,0.000530549
1695.0,1.53485,636.606,3088.7,3083.85,1.53485,0.000110168
1698.0,1.53749,636.772,3092.77,3087.92,1.53693,0.00218979
1701.0,1.53646,636.937,3096.84,3091.98,1.53646,0.00171943
1704.0,1.53585,637.102,3100.91,3096.05,1.53618,0.00143909
1707.0,1.53682,637.267,3104.98,3100.11,1.53656,0.00181876
1710.0,1.53686,637.432,3109.04,3104.16,1.53656,0.00181845
1713.0,1.53572,637.597,3113.11,3108.22,1.53607,0.00132816
1716.0,1.53633,637.762,3117.17,3112.28,1.53625,0.00150787
1719.0,1.53751,637.927,3121.23,3116.33,1.53723,0.0024876
1722.0,1.5365,638.092,3125.28,3120.38,1.53723,0.00248736
1725.0,1.53731,638.258,3129.34,3124.43,1.53731,0.00256713
1728.0,1.53737,638.423,3133.39,3128.47,1.53737,0.00262692
1731.0,1.53721,638.588,3137.44,3132.51,1.53777,0.00302674
1734.0,1.53828,638.753,3141.49,3136.56,1.53781,0.00306659
1737.0,1.53899,638.918,3145.53,3140.6,1.53894,0.00419647
1740.0,1.53873,639.083,3149.58,3144.63,1.53861,0.00386637
1743.0,1.53786,639.248,3153.62,3148.67,1.53834,0.00359631
1746.0,1.53908,639.413,3157.66,3152.7,1.53877,0.00402627
1749.0,1.54018,639.578,3161.7,3156.73,1.54012,0.00537627
1752.0,1.54057,639.744,3165.73,3160.76,1.54057,0.00582627
1755.0,1.54009,639.909,3169.76,3164.79,1.54009,0.00534627
1758.0,1.54063,640.074,3173.79,3168.81,1.54063,0.00588627
1761.0,1.54071,640.239,3177.82,3172.84,1.54071,0.00596627
1764.0,1.54106,640.404,3181.85,3176.86,1.54106,0.00631627
1767.0,1.5417,640.569,3185.88,3180.88,1.54157,0.00682627
1770.0,1.54157,640.734,3189.9,3184.89,1.54157,0.00682627
1773.0,1.54198,640.899,3193.92,3188.91,1.54192,0.00717627
1776.0,1.5425,641.065,3197.94,3192.92,1.5425,0.00775627
1779.0,1.5438,641.23,3201.96,3196.93,1.54316,0.00841627
1782.0,1.54499,641.395,3205.97,3200.94,1.54499,0.0102463
1785.0,1.5442,641.56,3209.98,3204.95,1.54453,0.00978627
1788.0,1.54472,641.725,3213.99,3208.95,1.54438,0.00963627
1791.0,1.5443,641.89,3218,3212.95,1.54438,0.00963627
1794.0,1.5467,642.055,3222.01,3216.95,1.54628,0.0115363
1797.0,1.54583,642.22,3226.01,3220.95,1.54608,0.0113363
1800.0,1.5459,642.385,3230.01,3224.95,1.54608,0.0113363
1803.0,1.5481,642.551,3234.01,3228.94,1.5472,0.0124563
1806.0,1.54758,642.716,3238.01,3232.93,1.5472,0.0124563
1809.0,1.54716,642.881,3242.01,3236.92,1.54691,0.0121663
1812.0,1.54718,643.046,3246,3240.91,1.54718,0.0124363
1815.0,1.54737,643.211,3249.99,3244.9,1.54737,0.0126263
1818.0,1.54757,643.376,3253.98,3248.88,1.54766,0.0129163
1821.0,1.5495,643.541,3257.97,3252.86,1.54865,0.0139063
1824.0,1.54924,643.706,3261.96,3256.84,1.54924,0.0144963
1827.0,1.54907,643.871,3265.94,3260.82,1.5491,0.0143563
1830.0,1.54872,644.037,3269.92,3264.79,1.54872,0.0139763
1833.0,1.54982,644.202,3273.9,3268.77,1.54962,0.0148763
1836.0,1.549,644.367,3277.88,3272.74,1.54962,0.0148763
1839.0,1.55051,644.532,3281.86,3276.71,1.55041,0.0156663
1842.0,1.55065,644.697,3285.83,3280.68,1.55065,0.0159063
1845.0,1.5513,644.862,3289.8,3284.64,1.55105,0.0163063
1848.0,1.55092,645.027,3293.77,3288.61,1.55092,0.0161763
1851.0,1.55059,645.192,3297.74,3292.57,1.55069,0.0159463
1854.0,1.5516,645.357,3301.7,3296.53,1.55101,0.0162663
1857.0,1.54962,645.523,3305.67,3300.48,1.55033,0.0155863
1860.0,1.54981,645.688,3309.63,3304.44,1.54981,0.0150663
1863.0,1.55005,645.853,3313.59,3308.39,1.55005,0.0153063
1866.0,1.55041,646.018,3317.55,3312.34,1.55023,0.0154863
1869.0,1.55076,646.183,3321.5,3316.29,1.55076,0.0160163
1872.0,1.55127,646.348,3325.45,3320.24,1.55127,0.0165263
1875.0,1.55041,646.513,3329.41,3324.18,1.55059,0.0158463
1878.0,1.55113,646.678,3333.36,3328.13,1.55082,0.0160763
1881.0,1.5504,646.843,3337.3,3332.07,1.5504,0.0156563
1884.0,1.54947,647.009,3341.25,3336.01,1.55034,0.0155963
1887.0,1.55099,647.174,3345.19,3339.95,1.5507,0.0159563
1890.0,1.55044,647.339,3349.13,3343.88,1.55044,0.0156963
1893.0,1.55094,647.504,3353.07,3347.81,1.55053,0.0157863
1896.0,1.5505,647.669,3357.01,3351.74,1.5505,0.0157563
1899.0,1.55028,647.834,3360.94,3355.67,1.55028,0.0155363
1902.0,1.55046,647.999,3364.88,3359.6,1.55017,0.0154263
1905.0,1.54937,648.164,3368.81,3363.53,1.54993,0.0151863
1908.0,1.55027,648.33,3372.74,3367.45,1.55026,0.0155163
1911.0,1.55049,648.495,3376.66,3371.37,1.55031,0.0155663
1914.0,1.55017,648.66,3380.59,3375.29,1.55017,0.0154263
1917.0,1.54957,648.825,3384.51,3379.21,1.54965,0.0149063
1920.0,1.55136,648.99,3388.43,3383.12,1.55038,0.0156363
1923.0,1.54831,649.155,3392.35,3387.03,1.54912,0.0143763
1926.0,1.54913,649.32,3396.27,3390.95,1.54913,0.0143863
1929.0,1.55172,649.485,3400.19,3394.85,1.55119,0.0164463
1932.0,1.55175,649.65,3404.1,3398.76,1.55175,0.0170063
1935.0,1.55203,649.816,3408.01,3402.67,1.55196,0.0172163
1938.0,1.54988,649.981,3411.92,3406.57,1.55033,0.0155863
1941.0,1.55109,650.146,3415.83,3410.47,1.55109,0.0163463
1944.0,1.55105,650.311,3419.73,3414.37,1.55131,0.0165663
1947.0,1.55126,650.476,3423.63,3418.27,1.55126,0.0165163
1950.0,1.5514,650.641,3427.54,3422.16,1.55154,0.0167963
1953.0,1.55225,650.806,3431.44,3426.06,1.55245,0.0177063
1956.0,1.5534,650.971,3435.33,3429.95,1.5531,0.0183563
1959.0,1.5522,651.136,3439.23,3433.84,1.5522,0.0174563
1962.0,1.55159,651.302,3443.12,3437.72,1.55167,0.0169263
1965.0,1.55189,651.467,3447.01,3441.61,1.55189,0.0171463
1968.0,1.55364,651.632,3450.9,3445.49,1.55302,0.0182763
1971.0,1.55268,651.797,3454.79,3449.38,1.55268,0.0179363
1974.0,1.55245,651.962,3458.68,3453.25,1.55245,0.0177063
1977.0,1.55278,652.127,3462.56,3457.13,1.55321,0.0184663
1980.0,1.55363,652.292,3466.44,3461.01,1.55332,0.0185763
1983.0,1.553,652.457,3470.32,3464.88,1.553,0.0182563
1986.0,1.55467,652.622,3474.2,3468.75,1.55467,0.0199263
1989.0,1.55517,652.788,3478.07,3472.62,1.55517,0.0204263
1992.0,1.55512,652.953,3481.95,3476.49,1.55512,0.0203763
1995.0,1.55526,653.118,3485.82,3480.36,1.55526,0.0205163
1998.0,1.55383,653.283,3489.69,3484.22,1.55383,0.0190863
2001.0,1.55208,653.448,3493.56,3488.08,1.55265,0.0179063
2004.0,1.55397,653.613,3497.42,3491.94,1.55305,0.0183063
2007.0,1.5532,653.778,3501.29,3495.8,1.55396,0.0192163
2010.0,1.55375,653.943,3505.15,3499.66,1.55396,0.0192163
2013.0,1.55473,654.108,3509.01,3503.51,1.55405,0.0193063
2016.0,1.55349,654.274,3512.87,3507.36,1.55379,0.0190463
2019.0,1.55402,654.439,3516.72,3511.21,1.55379,0.0190463
2022.0,1.55237,654.604,3520.58,3515.06,1.55316,0.0184163
2025.0,1.55414,654.769,3524.43,3518.91,1.55347,0.0187263
2028.0,1.55257,654.934,3528.28,3522.75,1.55257,0.0178263
2031.0,1.55281,655.099,3532.13,3526.59,1.55274,0.0179963
2034.0,1.55386,655.264,3535.97,3530.43,1.55386,0.0191163
2037.0,1.55363,655.429,3539.82,3534.27,1.55363,0.0188863
2040.0,1.5527,655.595,3543.66,3538.11,1.55264,0.0178963
2043.0,1.55149,655.76,3547.5,3541.94,1.55149,0.0167463
2046.0,1.55178,655.925,3551.34,3545.78,1.55126,0.0165163
2047.0,1.55139,655.98,3552.62,3547.05,1.55126,0.0165163