File: data/processed/processed_data/2024-08-27/2024-08-27_magnesiumsulfateheptahydrate_n_y_y_solid_5000_0_5.csv
Pixels #,Intensity (a.u.),Wavelength (nm),Raman shift (cm-1),Raman shift (cm-1) adjusted,Filtered Intensity (a.u.),Baselined Filtered Intensity (a.u.)
0.0,0.00271178,543.317,391.539,390.861,0.000676768,0.000670421
3.0,0.000601334,543.482,397.131,396.444,0.000676768,0.000670421
6.0,0.00163399,543.647,402.719,402.024,0.00163399,0.00162764
9.0,0.0019121,543.813,408.304,407.6,0.00210125,0.0020949
12.0,0.00149902,543.978,413.886,413.173,0.00149902,0.00149267
15.0,0.000643221,544.143,419.464,418.743,0.00105395,0.0010476
18.0,0.00156545,544.308,425.038,424.309,0.00121699,0.00121064
21.0,0.000172577,544.473,430.61,429.872,5.26613e-05,4.63138e-05
24.0,0.000409181,544.638,436.178,435.431,0.000409181,0.000402834
27.0,0.000781844,544.803,441.742,440.987,0.00081886,0.000812513
30.0,0.00127942,544.968,447.304,446.54,0.00127942,0.00127307
33.0,0.0015409,545.133,452.861,452.089,0.00179246,0.00178611
36.0,0.00186865,545.299,458.416,457.635,0.00186865,0.0018623
39.0,0.0025301,545.464,463.967,463.177,0.00172315,0.0017168
42.0,0.000770538,545.629,469.515,468.717,0.000770538,0.000764192
45.0,0.000593605,545.794,475.059,474.252,0.000697162,0.000690816
48.0,0.00258691,545.959,480.6,479.785,0.00206611,0.00205976
51.0,0.00187976,546.124,486.138,485.314,0.00187976,0.00187341
54.0,0.00143785,546.289,491.673,490.84,0.00129384,0.00128749
57.0,0.00116867,546.454,497.204,496.362,0.00101111,0.00100476
60.0,0.000523847,546.62,502.731,501.882,0.000149293,0.000142948
63.0,3.1968e-05,546.785,508.256,507.397,0.000149293,0.000142948
66.0,0.000784157,546.95,513.777,512.91,0.000827397,0.000821052
69.0,0.000273126,547.115,519.294,518.419,0.000790515,0.000784171
72.0,0.00141656,547.28,524.809,523.925,0.00100268,0.000996336
75.0,0.000377831,547.445,530.32,529.427,0.000763918,0.000757574
78.0,0.00148805,547.61,535.827,534.926,0.00148805,0.00148171
81.0,0.0017489,547.775,541.332,540.422,0.00173149,0.00172515
84.0,0.00112444,547.94,546.833,545.915,0.00136804,0.0013617
87.0,0.00223059,548.106,552.331,551.404,0.00159699,0.00159065
90.0,0.00128237,548.271,557.825,556.89,0.00133769,0.00133135
93.0,0.000565432,548.436,563.316,562.373,0.00113186,0.00112552
96.0,0.00180984,548.601,568.804,567.852,0.00127838,0.00127204
99.0,0.00063923,548.766,574.289,573.328,0.000796579,0.000790237
102.0,0.00126897,548.931,579.77,578.801,0.00126897,0.00126263
105.0,0.00303255,549.096,585.248,584.27,0.0023946,0.00238826
108.0,0.00155237,549.261,590.722,589.737,0.00155237,0.00154603
111.0,0.00143463,549.426,596.194,595.199,0.00149482,0.00148848
114.0,0.00120823,549.592,601.662,600.659,0.00179732,0.00179098
117.0,0.00179323,549.757,607.127,606.115,0.00179323,0.00178689
120.0,0.00219202,549.922,612.588,611.568,0.00178264,0.0017763
123.0,0.00190519,550.087,618.046,617.018,0.00189146,0.00188512
126.0,0.001154,550.252,623.501,622.465,0.00185876,0.00185242
129.0,0.00267568,550.417,628.953,627.908,0.00256957,0.00256323
132.0,0.0,550.582,634.401,633.348,0.000235955,0.000229616
135.0,0.000755181,550.747,639.846,638.785,0.000235955,0.000229616
138.0,0.000181515,550.912,645.288,644.218,0.00103356,0.00102722
141.0,0.00106627,551.078,650.727,649.648,0.00135314,0.0013468
144.0,0.0017628,551.243,656.162,655.075,0.0017628,0.00175646
147.0,0.00126388,551.408,661.594,660.499,0.00142931,0.00142297
150.0,0.00279032,551.573,667.023,665.919,0.00170956,0.00170322
153.0,0.0,551.738,672.449,671.337,0.000917884,0.000911546
156.0,0.00134652,551.903,677.871,676.751,0.00122271,0.00121637
159.0,0.000951989,552.068,683.29,682.161,0.000883736,0.000877398
162.0,0.000145147,552.233,688.706,687.569,0.000521776,0.000515438
165.0,0.000755821,552.398,694.119,692.973,0.0009778,0.000971463
168.0,0.00149536,552.564,699.528,698.374,0.00114197,0.00113563
171.0,0.00151098,552.729,704.934,703.772,0.00151098,0.00150464
174.0,0.00140416,552.894,710.337,709.166,0.00140416,0.00139782
177.0,0.0,553.059,715.737,714.558,0.000493221,0.000486884
180.0,0.000987282,553.224,721.133,719.946,0.000987282,0.000980946
183.0,0.00187024,553.389,726.527,725.331,0.00129373,0.00128739
186.0,0.00097058,553.554,731.917,730.712,0.00143757,0.00143123
189.0,0.00202113,553.719,737.304,736.091,0.00162126,0.00161492
192.0,0.00183821,553.885,742.687,741.466,0.00125716,0.00125082
195.0,0.0,554.05,748.068,746.838,0.000712228,0.000705892
198.0,0.000581214,554.215,753.445,752.207,0.000581214,0.000574878
201.0,0.000681039,554.38,758.819,757.573,0.000681039,0.000674704
204.0,0.00115896,554.545,764.19,762.935,0.00127655,0.00127021
207.0,0.000580335,554.71,769.557,768.295,0.000580335,0.000574
210.0,0.000434765,554.875,774.922,773.651,0.000434765,0.00042843
213.0,0.0018795,555.04,780.283,779.004,0.00180482,0.00179848
216.0,0.00207065,555.205,785.641,784.353,0.00180482,0.00179849
219.0,0.000871979,555.371,790.996,789.7,0.00125227,0.00124594
222.0,0.00103663,555.536,796.347,795.043,0.00103663,0.0010303
225.0,0.00199043,555.701,801.696,800.384,0.00164432,0.00163799
228.0,0.00184617,555.866,807.041,805.721,0.00184617,0.00183984
231.0,0.00118459,556.031,812.383,811.055,0.00168167,0.00167534
234.0,0.00166291,556.196,817.722,816.385,0.00126769,0.00126136
237.0,0.0016129,556.361,823.058,821.713,0.0016129,0.00160657
240.0,0.00134416,556.526,828.391,827.037,0.00174164,0.00173531
243.0,0.00202169,556.691,833.72,832.358,0.00202169,0.00201536
246.0,0.00229353,556.857,839.046,837.676,0.00207064,0.00206431
249.0,0.000821538,557.022,844.369,842.991,0.00153553,0.0015292
252.0,0.00208004,557.187,849.689,848.303,0.00181498,0.00180865
255.0,0.0021465,557.352,855.006,853.612,0.00173887,0.00173254
258.0,0.00048948,557.517,860.32,858.917,0.00106816,0.00106183
261.0,0.0024219,557.682,865.63,864.219,0.00219968,0.00219335
264.0,0.00157044,557.847,870.938,869.519,0.00116917,0.00116284
267.0,0.00146126,558.012,876.242,874.815,0.00146126,0.00145493
270.0,0.00177048,558.177,881.543,880.108,0.00177048,0.00176415
273.0,0.00078952,558.343,886.841,885.397,0.00078952,0.000783187
276.0,0.00148355,558.508,892.136,890.684,0.00155475,0.00154842
279.0,0.00134058,558.673,897.428,895.968,0.00144038,0.00143405
282.0,0.000760391,558.838,902.716,901.248,0.000983819,0.000977486
285.0,0.00118885,559.003,908.002,906.525,0.000982362,0.000976029
288.0,0.000339537,559.168,913.284,911.799,0.000392163,0.00038583
291.0,0.000238356,559.333,918.563,917.07,0.000392163,0.00038583
294.0,0.000704509,559.498,923.839,922.338,0.000704509,0.000698176
297.0,0.00111397,559.663,929.112,927.603,0.000947207,0.000940875
300.0,0.00062949,559.829,934.382,932.865,0.000875417,0.000869085
303.0,0.000172369,559.994,939.649,938.124,0.000772568,0.000766236
306.0,0.00107252,560.159,944.913,943.379,0.00107252,0.00106619
309.0,0.000362139,560.324,950.173,948.632,0.000362139,0.000355807
312.0,0.000731253,560.489,955.431,953.881,0.00046083,0.000454498
315.0,0.000534994,560.654,960.685,959.127,0.000543919,0.000537587
318.0,0.00292922,560.819,965.936,964.37,0.00292922,0.00292289
321.0,0.00605256,560.984,971.185,969.61,0.00605256,0.00604623
324.0,0.0213466,561.15,976.43,974.847,0.0213466,0.0213403
327.0,0.0504289,561.315,981.672,980.081,0.0504289,0.0504226
330.0,0.0617683,561.48,986.911,985.312,0.0605793,0.060573
333.0,0.054378,561.645,992.147,990.54,0.054378,0.0543717
336.0,0.0364711,561.81,997.379,995.765,0.0364711,0.0364648
339.0,0.0180972,561.975,1002.61,1000.99,0.0180972,0.0180909
342.0,0.0134795,562.14,1007.84,1006.2,0.0128204,0.0128141
345.0,0.0104029,562.305,1013.06,1011.42,0.0104029,0.0103966
348.0,0.00576268,562.47,1018.28,1016.63,0.00576268,0.00575635
351.0,0.0026337,562.636,1023.5,1021.84,0.0026337,0.00262737
354.0,0.00101056,562.801,1028.71,1027.05,0.00101056,0.00100423
357.0,0.000176073,562.966,1033.92,1032.25,0.000137204,0.000130873
360.0,0.000622303,563.131,1039.13,1037.45,0.000517758,0.000511427
363.0,0.000629072,563.296,1044.34,1042.65,0.000833343,0.000827012
366.0,0.00216217,563.461,1049.54,1047.84,0.00204275,0.00203642
369.0,0.00303878,563.626,1054.74,1053.03,0.00303878,0.00303245
372.0,0.0046114,563.791,1059.93,1058.22,0.00419591,0.00418958
375.0,0.00358469,563.956,1065.13,1063.41,0.00358469,0.00357836
378.0,0.00327507,564.122,1070.32,1068.59,0.00316779,0.00316146
381.0,0.00326914,564.287,1075.5,1073.77,0.00311445,0.00310812
384.0,0.00186858,564.452,1080.69,1078.94,0.00217125,0.00216492
387.0,0.00287309,564.617,1085.87,1084.12,0.00218327,0.00217694
390.0,0.00217637,564.782,1091.05,1089.29,0.00263476,0.00262843
393.0,0.00187887,564.947,1096.22,1094.45,0.00236169,0.00235536
396.0,0.00268806,565.112,1101.39,1099.62,0.00236169,0.00235536
399.0,0.00253892,565.277,1106.56,1104.78,0.00246012,0.00245379
402.0,0.00194481,565.442,1111.73,1109.94,0.00243856,0.00243223
405.0,0.00226432,565.608,1116.89,1115.09,0.00226432,0.00225799
408.0,0.00182038,565.773,1122.05,1120.24,0.00169069,0.00168436
411.0,0.00163167,565.938,1127.21,1125.39,0.00169069,0.00168436
414.0,0.00199609,566.103,1132.36,1130.54,0.00199609,0.00198976
417.0,0.00121892,566.268,1137.51,1135.68,0.00121892,0.00121259
420.0,0.00260268,566.433,1142.66,1140.82,0.00266669,0.00266036
423.0,0.00176948,566.598,1147.8,1145.96,0.0021678,0.00216147
426.0,0.00260351,566.763,1152.94,1151.09,0.00260351,0.00259718
429.0,0.00220635,566.928,1158.08,1156.22,0.00220635,0.00220002
432.0,0.00240313,567.094,1163.22,1161.35,0.00178082,0.00177449
435.0,0.00124359,567.259,1168.35,1166.47,0.00124359,0.00123726
438.0,0.00017401,567.424,1173.48,1171.59,0.000536138,0.000529809
441.0,0.00201322,567.589,1178.61,1176.71,0.00100043,0.000994101
444.0,0.000856588,567.754,1183.73,1181.83,0.00100043,0.000994101
447.0,0.00113409,567.919,1188.85,1186.94,0.00113409,0.00112776
450.0,0.000409268,568.084,1193.97,1192.05,0.000409268,0.000402939
453.0,0.00077403,568.249,1199.09,1197.16,0.00077403,0.000767701
456.0,0.00155507,568.415,1204.2,1202.26,0.00131966,0.00131333
459.0,0.00162166,568.58,1209.31,1207.36,0.00150151,0.00149518
462.0,0.000729167,568.745,1214.41,1212.46,0.000729167,0.000722838
465.0,0.000326486,568.91,1219.52,1217.56,0.000326486,0.000320157
468.0,0.00137047,569.075,1224.62,1222.65,0.00137047,0.00136414
471.0,0.00119291,569.24,1229.71,1227.74,0.00119291,0.00118658
474.0,0.0,569.405,1234.81,1232.82,0.000150057,0.000143728
477.0,0.000590698,569.57,1239.9,1237.91,0.000167832,0.000161503
480.0,0.000636209,569.735,1244.99,1242.99,0.000636209,0.00062988
483.0,0.000179209,569.901,1250.07,1248.07,0.000751083,0.000744754
486.0,0.000635584,570.066,1255.15,1253.14,0.000635584,0.000629255
489.0,6.98032e-05,570.231,1260.23,1258.21,6.98032e-05,6.34748e-05
492.0,0.000264269,570.396,1265.31,1263.28,0.000590424,0.000584096
495.0,0.00129686,570.561,1270.38,1268.35,0.00132848,0.00132215
498.0,0.00124588,570.726,1275.45,1273.41,0.00124588,0.00123955
501.0,0.000644393,570.891,1280.52,1278.47,0.000644393,0.000638065
504.0,0.000370443,571.056,1285.59,1283.52,0.000370443,0.000364115
507.0,0.00014706,571.221,1290.65,1288.58,0.00014706,0.000140732
510.0,0.0,571.387,1295.71,1293.63,0.000129864,0.000123536
513.0,0.00145548,571.552,1300.76,1298.68,0.00145548,0.00144915
516.0,0.00140039,571.717,1305.81,1303.72,0.00140039,0.00139406
519.0,0.00110996,571.882,1310.86,1308.76,0.00110996,0.00110363
522.0,0.00132106,572.047,1315.91,1313.8,0.00132106,0.00131473
525.0,0.00245248,572.212,1320.96,1318.84,0.00205273,0.0020464
528.0,0.00223108,572.377,1326,1323.87,0.00189655,0.00189022
531.0,0.000200029,572.542,1331.04,1328.9,0.000200029,0.000193703
534.0,0.00170218,572.707,1336.07,1333.93,0.00182051,0.00181418
537.0,0.00183289,572.873,1341.1,1338.96,0.00183289,0.00182656
540.0,0.000702625,573.038,1346.13,1343.98,0.000861773,0.000855447
543.0,0.00173638,573.203,1351.16,1349,0.00173638,0.00173005
546.0,0.0015712,573.368,1356.18,1354.01,0.0015712,0.00156487
549.0,0.000478973,573.533,1361.21,1359.03,0.00075202,0.000745695
552.0,0.00182185,573.698,1366.22,1364.04,0.000881438,0.000875113
555.0,0.0,573.863,1371.24,1369.05,0.000970392,0.000964067
558.0,0.00130542,574.028,1376.25,1374.05,0.00107073,0.00106441
561.0,0.00136935,574.193,1381.26,1379.05,0.00136935,0.00136303
564.0,0.00112447,574.359,1386.27,1384.05,0.00156287,0.00155655
567.0,0.00161608,574.524,1391.27,1389.05,0.00156287,0.00155655
570.0,0.000857098,574.689,1396.27,1394.04,0.00113957,0.00113325
573.0,0.00163471,574.854,1401.27,1399.03,0.00104161,0.00103529
576.0,0.00174135,575.019,1406.26,1404.02,0.00143792,0.0014316
579.0,0.00125726,575.184,1411.26,1409,0.00143792,0.0014316
582.0,0.00129585,575.349,1416.25,1413.98,0.00167599,0.00166967
585.0,0.00214289,575.514,1421.23,1418.96,0.00167814,0.00167182
588.0,0.00167599,575.68,1426.22,1423.94,0.00167599,0.00166967
591.0,0.00144572,575.845,1431.2,1428.91,0.00134991,0.00134359
594.0,0.000187542,576.01,1436.17,1433.88,0.000187542,0.000181219
597.0,0.000977814,576.175,1441.15,1438.85,0.000739775,0.000733452
600.0,0.00155985,576.34,1446.12,1443.81,0.00149723,0.00149091
603.0,0.000105809,576.505,1451.09,1448.78,0.000161543,0.000155221
606.0,0.00057904,576.67,1456.06,1453.73,0.000346503,0.000340181
609.0,0.00190875,576.835,1461.02,1458.69,0.00190875,0.00190243
612.0,0.000811996,577,1465.98,1463.64,0.000981547,0.000975225
615.0,0.000958296,577.166,1470.94,1468.59,0.000713163,0.000706841
618.0,0.0014098,577.331,1475.9,1473.54,0.0014098,0.00140348
621.0,0.00176998,577.496,1480.85,1478.49,0.00176998,0.00176366
624.0,0.0015435,577.661,1485.8,1483.43,0.00136995,0.00136363
627.0,0.000533529,577.826,1490.74,1488.37,0.000533529,0.000527208
630.0,0.00173014,577.991,1495.69,1493.3,0.00117798,0.00117166
633.0,0.000488689,578.156,1500.63,1498.24,0.000556181,0.00054986
636.0,0.000686996,578.321,1505.57,1503.17,0.000686996,0.000680675
639.0,0.00045011,578.486,1510.5,1508.09,0.00045011,0.000443789
642.0,0.000296515,578.652,1515.44,1513.02,0.000296515,0.000290194
645.0,0.00123866,578.817,1520.36,1517.94,0.00101076,0.00100444
648.0,0.0,578.982,1525.29,1522.86,0.000355714,0.000349394
651.0,0.00100145,579.147,1530.22,1527.78,0.000908307,0.000901987
654.0,0.00148313,579.312,1535.14,1532.69,0.00148313,0.00147681
657.0,0.000989229,579.477,1540.06,1537.6,0.00142642,0.0014201
660.0,0.00143674,579.642,1544.97,1542.51,0.00133851,0.00133219
663.0,0.000615222,579.807,1549.88,1547.42,0.000894021,0.000887701
666.0,0.00132919,579.972,1554.79,1552.32,0.000888118,0.000881798
669.0,0.000696885,580.138,1559.7,1557.22,0.000696885,0.000690565
672.0,0.000997637,580.303,1564.61,1562.11,0.000997637,0.000991318
675.0,0.000641712,580.468,1569.51,1567.01,0.000641712,0.000635393
678.0,0.000179934,580.633,1574.41,1571.9,0.000179934,0.000173615
681.0,0.0014457,580.798,1579.3,1576.79,0.0014457,0.00143938
684.0,0.000888034,580.963,1584.2,1581.67,0.00134093,0.00133461
687.0,0.00148766,581.128,1589.09,1586.56,0.00122777,0.00122145
690.0,0.00139128,581.293,1593.98,1591.44,0.00122777,0.00122145
693.0,0.0,581.458,1598.86,1596.32,0.000288582,0.000282263
696.0,0.0014599,581.624,1603.74,1601.19,0.0014599,0.00145358
699.0,0.0022992,581.789,1608.62,1606.06,0.00206924,0.00206292
702.0,0.000892126,581.954,1613.5,1610.93,0.000909952,0.000903633
705.0,0.00127096,582.119,1618.37,1615.8,0.00127096,0.00126464
708.0,0.00223495,582.284,1623.24,1620.66,0.00218165,0.00217533
711.0,0.00192035,582.449,1628.11,1625.52,0.00187015,0.00186383
714.0,0.00157579,582.614,1632.98,1630.38,0.00159331,0.00158699
717.0,0.00109285,582.779,1637.84,1635.24,0.00109285,0.00108653
720.0,1.03896e-05,582.945,1642.7,1640.09,0.000222051,0.000215733
723.0,0.00110925,583.11,1647.56,1644.94,0.000842628,0.00083631
726.0,0.00235321,583.275,1652.41,1649.79,0.00139753,0.00139121
729.0,0.000655422,583.44,1657.27,1654.63,0.00134777,0.00134145
732.0,0.0012966,583.605,1662.11,1659.47,0.00141078,0.00140446
735.0,0.00201423,583.77,1666.96,1664.31,0.002007,0.00200068
738.0,0.00136642,583.935,1671.8,1669.15,0.00209452,0.0020882
741.0,0.00193131,584.1,1676.65,1673.98,0.00193131,0.00192499
744.0,0.00195715,584.265,1681.48,1678.81,0.00177193,0.00176561
747.0,0.00145584,584.431,1686.32,1683.64,0.00171882,0.0017125
750.0,0.00223848,584.596,1691.15,1688.46,0.00210488,0.00209856
753.0,0.00188729,584.761,1695.98,1693.29,0.00210488,0.00209856
756.0,0.00261634,584.926,1700.81,1698.11,0.00218074,0.00217442
759.0,0.00141006,585.091,1705.63,1702.92,0.00141006,0.00140374
762.0,0.000423811,585.256,1710.46,1707.74,0.000617337,0.00061102
765.0,0.00109203,585.421,1715.27,1712.55,0.00109203,0.00108571
768.0,0.00197571,585.586,1720.09,1717.36,0.00179116,0.00178484
771.0,0.000864424,585.751,1724.9,1722.16,0.00134178,0.00133546
774.0,0.00248819,585.917,1729.72,1726.97,0.00191277,0.00190645
777.0,0.000966227,586.082,1734.52,1731.77,0.00097573,0.000969414
780.0,0.000227453,586.247,1739.33,1736.57,0.000227453,0.000221137
783.0,0.000593504,586.412,1744.13,1741.36,0.000410786,0.00040447
786.0,0.00138544,586.577,1748.93,1746.16,0.00136283,0.00135651
789.0,0.00134872,586.742,1753.73,1750.95,0.00136283,0.00135651
792.0,0.00171729,586.907,1758.52,1755.73,0.00171729,0.00171097
795.0,0.00176781,587.072,1763.32,1760.52,0.00117922,0.0011729
798.0,0.000597163,587.237,1768.11,1765.3,0.00128029,0.00127397
801.0,0.00158918,587.403,1772.89,1770.08,0.00128694,0.00128062
804.0,0.00128881,587.568,1777.68,1774.86,0.00126134,0.00125503
807.0,0.0,587.733,1782.46,1779.63,0.0,-6.31483e-06
810.0,0.000917407,587.898,1787.24,1784.4,0.000917407,0.000911092
813.0,0.00132779,588.063,1792.01,1789.17,0.00134043,0.00133412
816.0,0.00072968,588.228,1796.79,1793.93,0.00081722,0.000810905
819.0,0.000793904,588.393,1801.56,1798.7,0.000846498,0.000840184
822.0,0.00126133,588.558,1806.32,1803.46,0.00126133,0.00125502
825.0,0.00111412,588.723,1811.09,1808.22,0.0011172,0.00111089
828.0,0.00165367,588.889,1815.85,1812.97,0.00152744,0.00152113
831.0,0.00127776,589.054,1820.61,1817.72,0.00128709,0.00128078
834.0,0.000366669,589.219,1825.37,1822.47,0.000317604,0.00031129
837.0,0.000331849,589.384,1830.12,1827.22,0.000314191,0.000307877
840.0,0.0,589.549,1834.88,1831.97,0.000222026,0.000215712
843.0,0.00153901,589.714,1839.62,1836.71,0.00107596,0.00106965
846.0,0.00123228,589.879,1844.37,1841.45,0.00131463,0.00130832
849.0,0.00152536,590.044,1849.12,1846.18,0.00160464,0.00159833
852.0,0.00207778,590.21,1853.86,1850.92,0.00160464,0.00159833
855.0,0.00159057,590.375,1858.6,1855.65,0.00159057,0.00158426
858.0,0.00182245,590.54,1863.33,1860.38,0.00185731,0.001851
861.0,0.0023521,590.705,1868.06,1865.1,0.00211722,0.00211091
864.0,0.00232639,590.87,1872.79,1869.83,0.0024046,0.00239829
867.0,0.00187341,591.035,1877.52,1874.55,0.00187341,0.0018671
870.0,0.0015735,591.2,1882.25,1879.27,0.00147975,0.00147344
873.0,0.00129254,591.365,1886.97,1883.98,0.00129254,0.00128623
876.0,0.00145188,591.53,1891.69,1888.69,0.00139862,0.00139231
879.0,0.00102172,591.696,1896.41,1893.4,0.00139862,0.00139231
882.0,0.00218441,591.861,1901.12,1898.11,0.00206996,0.00206365
885.0,0.00244385,592.026,1905.84,1902.82,0.00204342,0.00203711
888.0,0.00128367,592.191,1910.55,1907.52,0.00128367,0.00127736
891.0,0.000754044,592.356,1915.25,1912.22,0.000754044,0.000747731
894.0,0.00121672,592.521,1919.96,1916.91,0.00121672,0.00121041
897.0,0.00130692,592.686,1924.66,1921.61,0.00178214,0.00177583
900.0,0.000981533,592.851,1929.36,1926.3,0.00115092,0.00114461
903.0,0.000793045,593.016,1934.05,1930.99,0.00115092,0.00114461
906.0,0.00145887,593.182,1938.75,1935.68,0.00145633,0.00145002
909.0,0.0026095,593.347,1943.44,1940.36,0.00195626,0.00194995
912.0,0.00108371,593.512,1948.13,1945.04,0.00108371,0.0010774
915.0,0.000489297,593.677,1952.81,1949.72,0.000769294,0.000762982
918.0,0.000289235,593.842,1957.5,1954.4,0.00050365,0.000497338
921.0,0.00176731,594.007,1962.18,1959.07,0.00120707,0.00120076
924.0,0.00148465,594.172,1966.86,1963.74,0.00148465,0.00147834
927.0,0.00192522,594.337,1971.53,1968.41,0.00168302,0.00167671
930.0,0.00126395,594.502,1976.2,1973.08,0.0014816,0.00147529
933.0,0.00238012,594.668,1980.87,1977.74,0.00205262,0.00204631
936.0,0.000501123,594.833,1985.54,1982.4,0.000501123,0.000494811
939.0,0.00241814,594.998,1990.21,1987.06,0.00208016,0.00207385
942.0,0.000495953,595.163,1994.87,1991.71,0.000567358,0.000561046
945.0,0.000972869,595.328,1999.53,1996.37,0.000972869,0.000966557
948.0,0.00171523,595.493,2004.19,2001.02,0.00133434,0.00132803
951.0,0.00146032,595.658,2008.84,2005.66,0.00146032,0.00145401
954.0,0.000979046,595.823,2013.5,2010.31,0.00141855,0.00141224
957.0,0.000412767,595.988,2018.14,2014.95,0.000412767,0.000406455
960.0,0.0,596.154,2022.79,2019.59,5.06493e-06,-1.2473e-06
963.0,0.00200195,596.319,2027.44,2024.23,0.00171598,0.00170967
966.0,0.000902462,596.484,2032.08,2028.86,0.00171598,0.00170967
969.0,0.00172101,596.649,2036.72,2033.5,0.00157336,0.00156705
972.0,0.00210538,596.814,2041.35,2038.13,0.00169696,0.00169065
975.0,0.00130479,596.979,2045.99,2042.75,0.00157933,0.00157302
978.0,0.00152781,597.144,2050.62,2047.38,0.00152781,0.0015215
981.0,0.000509276,597.309,2055.25,2052,0.00054108,0.000534768
984.0,0.00130371,597.475,2059.88,2056.62,0.00122424,0.00121793
987.0,0.00104534,597.64,2064.5,2061.24,0.00103861,0.0010323
990.0,0.000207846,597.805,2069.12,2065.85,0.00045893,0.000452618
993.0,0.0,597.97,2073.74,2070.46,0.000142874,0.000136562
996.0,0.00171379,598.135,2078.36,2075.07,0.000947841,0.000941529
999.0,0.000729258,598.3,2082.97,2079.68,0.00138382,0.00137751
1002.0,0.00180384,598.465,2087.58,2084.28,0.00138382,0.00137751
1005.0,0.000237278,598.63,2092.19,2088.88,0.000528747,0.000522435
1008.0,0.000821766,598.795,2096.8,2093.48,0.00104062,0.00103431
1011.0,0.00234682,598.961,2101.4,2098.08,0.00125139,0.00124508
1014.0,0.000925219,599.126,2106,2102.67,0.000925219,0.000918907
1017.0,0.0,599.291,2110.6,2107.27,0.000679435,0.000673123
1020.0,0.00131683,599.456,2115.2,2111.85,0.00106678,0.00106047
1023.0,0.000761805,599.621,2119.79,2116.44,0.000783534,0.000777222
1026.0,0.00116698,599.786,2124.38,2121.02,0.00116698,0.00116067
1029.0,0.00124527,599.951,2128.97,2125.61,0.00153417,0.00152786
1032.0,0.0013685,600.116,2133.56,2130.18,0.00153417,0.00152786
1035.0,0.001317,600.281,2138.14,2134.76,0.000782081,0.000775769
1038.0,0.000373474,600.447,2142.72,2139.33,0.000608221,0.000601909
1041.0,0.00164159,600.612,2147.3,2143.91,0.00164159,0.00163528
1044.0,0.000547205,600.777,2151.88,2148.48,0.000671187,0.000664874
1047.0,0.000522755,600.942,2156.45,2153.04,0.000522755,0.000516442
1050.0,0.000327165,601.107,2161.02,2157.61,0.000709201,0.000702888
1053.0,0.0011161,601.272,2165.59,2162.17,0.000867469,0.000861156
1056.0,0.000875061,601.437,2170.15,2166.73,0.00109016,0.00108385
1059.0,0.00108106,601.602,2174.72,2171.28,0.00108106,0.00107475
1062.0,0.00127884,601.767,2179.28,2175.84,0.00127884,0.00127253
1065.0,0.000323245,601.933,2183.84,2180.39,0.000705971,0.000699658
1068.0,0.000982616,602.098,2188.39,2184.94,0.000839742,0.000833429
1071.0,0.00107043,602.263,2192.95,2189.48,0.00117124,0.00116493
1074.0,0.00142516,602.428,2197.5,2194.03,0.00142516,0.00141885
1077.0,0.000552558,602.593,2202.04,2198.57,0.000945099,0.000938786
1080.0,0.00128949,602.758,2206.59,2203.11,0.00136126,0.00135495
1083.0,0.00215802,602.923,2211.13,2207.64,0.00215802,0.00215171
1086.0,0.00279327,603.088,2215.67,2212.18,0.00230971,0.0023034
1089.0,0.001052,603.253,2220.21,2216.71,0.00127232,0.00126601
1092.0,0.000381088,603.419,2224.75,2221.24,0.000849637,0.000843323
1095.0,0.000535101,603.584,2229.28,2225.76,0.00126767,0.00126136
1098.0,0.00210244,603.749,2233.81,2230.29,0.00152314,0.00151683
1101.0,0.00195535,603.914,2238.34,2234.81,0.00171902,0.00171271
1104.0,0.000826363,604.079,2242.87,2239.33,0.000826363,0.000820049
1107.0,0.000569012,604.244,2247.39,2243.84,0.000569012,0.000562698
1110.0,0.00174533,604.409,2251.91,2248.36,0.0016999,0.00169359
1113.0,0.00324836,604.574,2256.43,2252.87,0.00217399,0.00216768
1116.0,0.0010581,604.74,2260.95,2257.38,0.00189157,0.00188526
1119.0,0.00104258,604.905,2265.46,2261.88,0.00104258,0.00103627
1122.0,0.000932959,605.07,2269.97,2266.39,0.000932959,0.000926644
1125.0,0.00106284,605.235,2274.48,2270.89,0.00139437,0.00138806
1128.0,0.0011614,605.4,2278.99,2275.39,0.0011614,0.00115509
1131.0,0.001437,605.565,2283.49,2279.89,0.00109338,0.00108707
1134.0,0.0014937,605.73,2287.99,2284.38,0.00113079,0.00112447
1137.0,0.00114819,605.895,2292.49,2288.87,0.00114819,0.00114187
1140.0,0.00114826,606.06,2296.99,2293.36,0.00114826,0.00114194
1143.0,0.000681018,606.226,2301.48,2297.85,0.000975229,0.000968914
1146.0,0.00202254,606.391,2305.97,2302.33,0.0020007,0.00199438
1149.0,0.000985905,606.556,2310.46,2306.82,0.00135063,0.00134431
1152.0,0.00124565,606.721,2314.95,2311.3,0.00124565,0.00123933
1155.0,0.00126812,606.886,2319.43,2315.77,0.00127776,0.00127144
1158.0,0.00176569,607.051,2323.91,2320.25,0.0016582,0.00165188
1161.0,0.00107302,607.216,2328.39,2324.72,0.00107302,0.0010667
1164.0,0.000719754,607.381,2332.87,2329.19,0.000758122,0.000751806
1167.0,0.00103835,607.546,2337.35,2333.66,0.00103835,0.00103203
1170.0,0.000843848,607.712,2341.82,2338.12,0.00113085,0.00112453
1173.0,0.00214266,607.877,2346.29,2342.59,0.00135156,0.00134524
1176.0,0.00114724,608.042,2350.75,2347.05,0.00141363,0.00140731
1179.0,0.00176378,608.207,2355.22,2351.5,0.00141363,0.00140731
1182.0,0.000822266,608.372,2359.68,2355.96,0.000822266,0.000815949
1185.0,0.000349621,608.537,2364.14,2360.41,0.000349621,0.000343304
1188.0,0.00133463,608.702,2368.6,2364.86,0.00133463,0.00132831
1191.0,0.000138153,608.867,2373.05,2369.31,0.000138153,0.000131836
1194.0,0.00263724,609.032,2377.51,2373.76,0.00263724,0.00263092
1197.0,0.00207962,609.198,2381.96,2378.2,0.00207962,0.0020733
1200.0,0.000454859,609.363,2386.4,2382.64,0.00117278,0.00116646
1203.0,0.0,609.528,2390.85,2387.08,0.000734334,0.000728016
1206.0,0.00192467,609.693,2395.29,2391.52,0.00105988,0.00105356
1209.0,0.00140627,609.858,2399.73,2395.95,0.00105988,0.00105356
1212.0,0.000558955,610.023,2404.17,2400.38,0.000785586,0.000779268
1215.0,0.00104201,610.188,2408.61,2404.81,0.00104201,0.00103569
1218.0,0.000474809,610.353,2413.04,2409.24,0.000474809,0.000468491
1221.0,0.00153167,610.518,2417.47,2413.66,0.00148813,0.00148181
1224.0,0.000478383,610.684,2421.9,2418.08,0.00050968,0.000503361
1227.0,0.000149024,610.849,2426.33,2422.5,0.000440018,0.000433699
1230.0,0.00143695,611.014,2430.75,2426.92,0.000846135,0.000839816
1233.0,0.000490603,611.179,2435.17,2431.33,0.000490603,0.000484284
1236.0,0.000849307,611.344,2439.59,2435.75,0.000849307,0.000842988
1239.0,0.000813737,611.509,2444.01,2440.16,0.000991711,0.000985392
1242.0,0.0021407,611.674,2448.42,2444.56,0.0012259,0.00121958
1245.0,0.000172576,611.839,2452.83,2448.97,0.0012259,0.00121958
1248.0,0.00237162,612.005,2457.24,2453.37,0.00166928,0.00166296
1251.0,0.00134147,612.17,2461.65,2457.77,0.00138906,0.00138274
1254.0,0.00162534,612.335,2466.06,2462.17,0.00151898,0.00151266
1257.0,0.00150833,612.5,2470.46,2466.57,0.00109839,0.00109207
1260.0,0.0,612.665,2474.86,2470.96,3.65349e-06,-2.6672e-06
1263.0,0.000259474,612.83,2479.26,2475.35,3.65349e-06,-2.66741e-06
1266.0,0.0005199,612.995,2483.65,2479.74,0.0005199,0.000513579
1269.0,0.00148311,613.16,2488.04,2484.12,0.000830637,0.000824316
1272.0,0.000295852,613.325,2492.43,2488.51,0.000500699,0.000494377
1275.0,0.000213143,613.491,2496.82,2492.89,0.000579486,0.000573164
1278.0,0.00109057,613.656,2501.21,2497.27,0.000927199,0.000920877
1281.0,0.000397521,613.821,2505.59,2501.64,0.000566032,0.00055971
1284.0,0.000808992,613.986,2509.97,2506.02,0.000808992,0.000802669
1287.0,0.00219168,614.151,2514.35,2510.39,0.00160908,0.00160276
1290.0,0.000698405,614.316,2518.73,2514.76,0.00139513,0.00138881
1293.0,0.00160484,614.481,2523.1,2519.13,0.00133619,0.00132987
1296.0,0.000826227,614.646,2527.47,2523.49,0.00111613,0.00110981
1299.0,0.00138968,614.811,2531.84,2527.86,0.00131547,0.00130915
1302.0,0.000277042,614.977,2536.21,2532.22,0.000433319,0.000426995
1305.0,0.00151883,615.142,2540.57,2536.57,0.00136317,0.00135685
1308.0,0.000958726,615.307,2544.94,2540.93,0.00106987,0.00106355
1311.0,0.000372739,615.472,2549.3,2545.28,0.000448601,0.000442276
1314.0,0.000873766,615.637,2553.65,2549.63,0.000873766,0.000867441
1317.0,0.00151009,615.802,2558.01,2553.98,0.00151009,0.00150376
1320.0,0.00145541,615.967,2562.36,2558.33,0.00164709,0.00164076
1323.0,0.00142219,616.132,2566.71,2562.67,0.00142219,0.00141586
1326.0,0.0015584,616.297,2571.06,2567.01,0.0015584,0.00155207
1329.0,0.00118471,616.463,2575.41,2571.35,0.00118471,0.00117838
1332.0,0.000425424,616.628,2579.75,2575.69,0.000425424,0.000419098
1335.0,0.000278883,616.793,2584.09,2580.02,0.000278883,0.000272556
1338.0,0.000823437,616.958,2588.43,2584.36,0.00091512,0.000908793
1341.0,0.00146391,617.123,2592.77,2588.69,0.00155851,0.00155218
1344.0,0.00251308,617.288,2597.1,2593.01,0.00213885,0.00213252
1347.0,0.00117186,617.453,2601.43,2597.34,0.00197898,0.00197265
1350.0,0.00305506,617.618,2605.76,2601.66,0.0022771,0.00227077
1353.0,0.00131118,617.783,2610.09,2605.98,0.00166512,0.00165879
1356.0,0.00208176,617.949,2614.42,2610.3,0.00208176,0.00207543
1359.0,0.00221573,618.114,2618.74,2614.62,0.00208535,0.00207902
1362.0,0.00188976,618.279,2623.06,2618.93,0.00146797,0.00146164
1365.0,0.000879028,618.444,2627.38,2623.24,0.00140847,0.00140214
1368.0,0.00119549,618.609,2631.69,2627.55,0.00139725,0.00139092
1371.0,0.000149282,618.774,2636.01,2631.86,0.000328099,0.000321769
1374.0,0.000958252,618.939,2640.32,2636.16,0.000958252,0.000951922
1377.0,0.00239146,619.104,2644.63,2640.47,0.00214547,0.00213914
1380.0,0.00147526,619.27,2648.93,2644.77,0.00173299,0.00172666
1383.0,0.00107765,619.435,2653.24,2649.06,0.00107765,0.00107132
1386.0,0.0019257,619.6,2657.54,2653.36,0.0019257,0.00191937
1389.0,0.00267868,619.765,2661.84,2657.65,0.0021641,0.00215777
1392.0,0.000147636,619.93,2666.14,2661.94,0.00144565,0.00143932
1395.0,0.00360652,620.095,2670.43,2666.23,0.00240358,0.00239725
1398.0,0.00136755,620.26,2674.73,2670.52,0.00136755,0.00136122
1401.0,0.000533296,620.425,2679.02,2674.8,0.000749002,0.000742669
1404.0,0.000854761,620.59,2683.31,2679.08,0.000778913,0.00077258
1407.0,9.62596e-05,620.756,2687.59,2683.36,0.000756793,0.00075046
1410.0,0.00189287,620.921,2691.88,2687.64,0.000992268,0.000985934
1413.0,0.000983181,621.086,2696.16,2691.91,0.000992268,0.000985934
1416.0,0.00258375,621.251,2700.44,2696.19,0.00230626,0.00229993
1419.0,0.00185609,621.416,2704.71,2700.46,0.00179863,0.0017923
1422.0,0.0,621.581,2708.99,2704.73,0.000659337,0.000653002
1425.0,0.000866267,621.746,2713.26,2708.99,0.000866267,0.000859932
1428.0,0.00193567,621.911,2717.53,2713.25,0.00144298,0.00143664
1431.0,0.00183357,622.076,2721.8,2717.52,0.00171693,0.00171059
1434.0,0.00188309,622.242,2726.06,2721.78,0.00171693,0.00171059
1437.0,0.00151667,622.407,2730.33,2726.03,0.00144092,0.00143458
1440.0,0.000759859,622.572,2734.59,2730.29,0.00112497,0.00111863
1443.0,0.00208651,622.737,2738.85,2734.54,0.00208651,0.00208017
1446.0,0.00129635,622.902,2743.1,2738.79,0.00129635,0.00129001
1449.0,0.000717813,623.067,2747.36,2743.04,0.000584312,0.000577974
1452.0,0.0,623.232,2751.61,2747.28,0.00022105,0.000214712
1455.0,0.00229997,623.397,2755.86,2751.53,0.00112997,0.00112363
1458.0,0.000387521,623.562,2760.11,2755.77,0.00061208,0.000605741
1461.0,0.00172055,623.728,2764.35,2760,0.00150372,0.00149738
1464.0,0.0019711,623.893,2768.6,2764.24,0.00142324,0.0014169
1467.0,0.000264742,624.058,2772.84,2768.48,0.000653468,0.000647128
1470.0,0.000342257,624.223,2777.07,2772.71,0.000395213,0.000388873
1473.0,0.000310426,624.388,2781.31,2776.94,0.000395213,0.000388873
1476.0,0.00132378,624.553,2785.54,2781.16,0.00132378,0.00131744
1479.0,0.00186525,624.718,2789.78,2785.39,0.00186525,0.00185891
1482.0,0.0016042,624.883,2794.01,2789.61,0.0016042,0.00159786
1485.0,0.000674738,625.048,2798.23,2793.83,0.000494744,0.000488402
1488.0,0.000207664,625.214,2802.46,2798.05,0.000472555,0.000466213
1491.0,0.00218041,625.379,2806.68,2802.27,0.00152178,0.00151544
1494.0,0.000721993,625.544,2810.9,2806.48,0.000721993,0.00071565
1497.0,0.000762801,625.709,2815.12,2810.7,0.000762801,0.000756458
1500.0,0.000277585,625.874,2819.34,2814.9,0.000315114,0.000308771
1503.0,0.000535155,626.039,2823.55,2819.11,0.000535155,0.000528811
1506.0,0.00138172,626.204,2827.76,2823.32,0.00129917,0.00129283
1509.0,0.000888834,626.369,2831.97,2827.52,0.00100451,0.000998166
1512.0,0.000980073,626.535,2836.18,2831.72,0.000980073,0.000973728
1515.0,0.00123099,626.7,2840.38,2835.92,0.000935486,0.000929141
1518.0,0.0,626.865,2844.59,2840.12,0.000458749,0.000452404
1521.0,0.00145233,627.03,2848.79,2844.31,0.00145233,0.00144598
1524.0,0.00139846,627.195,2852.99,2848.5,0.00145568,0.00144933
1527.0,0.00141785,627.36,2857.18,2852.69,0.00121458,0.00120823
1530.0,6.43201e-05,627.525,2861.38,2856.88,0.000634204,0.000627857
1533.0,0.000759875,627.69,2865.57,2861.07,0.000652626,0.000646279
1536.0,0.00164665,627.855,2869.76,2865.25,0.00121259,0.00120624
1539.0,0.00159295,628.021,2873.95,2869.43,0.00159295,0.0015866
1542.0,0.00104515,628.186,2878.13,2873.61,0.00116119,0.00115484
1545.0,0.00232654,628.351,2882.31,2877.78,0.00224264,0.00223629
1548.0,0.000481153,628.516,2886.5,2881.96,0.000875078,0.00086873
1551.0,0.00116128,628.681,2890.67,2886.13,0.00102208,0.00101573
1554.0,0.00147869,628.846,2894.85,2890.3,0.00138607,0.00137972
1557.0,0.00111979,629.011,2899.02,2894.47,0.00129877,0.00129242
1560.0,0.00264642,629.176,2903.2,2898.63,0.00201608,0.00200973
1563.0,0.00037299,629.341,2907.37,2902.8,0.00037299,0.00036664
1566.0,0.00124638,629.507,2911.53,2906.96,0.000545103,0.000538753
1569.0,0.0,629.672,2915.7,2911.12,0.000214338,0.000207988
1572.0,0.00121306,629.837,2919.86,2915.28,0.00121306,0.00120671
1575.0,0.00191189,630.002,2924.02,2919.43,0.00191189,0.00190554
1578.0,0.00150054,630.167,2928.18,2923.58,0.00150054,0.00149419
1581.0,0.00204608,630.332,2932.34,2927.73,0.00218012,0.00217377
1584.0,0.00247973,630.497,2936.49,2931.88,0.00229976,0.00229341
1587.0,0.00151855,630.662,2940.65,2936.03,0.00169591,0.00168956
1590.0,0.00174662,630.827,2944.8,2940.17,0.00169591,0.00168956
1593.0,0.00226373,630.993,2948.95,2944.31,0.00167819,0.00167184
1596.0,0.00133308,631.158,2953.09,2948.45,0.0016653,0.00165895
1599.0,0.00148787,631.323,2957.24,2952.59,0.00148787,0.00148152
1602.0,0.00116381,631.488,2961.38,2956.72,0.00116381,0.00115746
1605.0,0.00249051,631.653,2965.52,2960.86,0.00243136,0.00242501
1608.0,0.000794074,631.818,2969.65,2964.99,0.00103947,0.00103312
1611.0,0.0,631.983,2973.79,2969.12,0.000424109,0.000417755
1614.0,0.00195815,632.148,2977.92,2973.24,0.00124266,0.00123631
1617.0,0.000675861,632.313,2982.05,2977.37,0.00128459,0.00127824
1620.0,0.00246424,632.479,2986.18,2981.49,0.00167563,0.00166928
1623.0,0.000885165,632.644,2990.31,2985.61,0.00142354,0.00141718
1626.0,0.00176478,632.809,2994.43,2989.73,0.00128242,0.00127606
1629.0,0.0013589,632.974,2998.55,2993.84,0.0013589,0.00135254
1632.0,0.00219531,633.139,3002.67,2997.96,0.00162164,0.00161528
1635.0,0.000336945,633.304,3006.79,3002.07,0.00125094,0.00124458
1638.0,0.00102636,633.469,3010.91,3006.18,0.00102636,0.00102
1641.0,0.00117316,633.634,3015.02,3010.29,0.000938976,0.000932619
1644.0,0.000841776,633.8,3019.13,3014.39,0.000929485,0.000923128
1647.0,0.00103312,633.965,3023.24,3018.49,0.000949356,0.000942998
1650.0,0.00102012,634.13,3027.35,3022.59,0.00125734,0.00125098
1653.0,0.00162609,634.295,3031.45,3026.69,0.00162609,0.00161973
1656.0,0.00238953,634.46,3035.56,3030.79,0.00238953,0.00238317
1659.0,0.00237549,634.625,3039.66,3034.88,0.00237549,0.00236913
1662.0,0.00226353,634.79,3043.76,3038.98,0.0014181,0.00141174
1665.0,0.00126251,634.955,3047.85,3043.07,0.00162613,0.00161977
1668.0,0.00173585,635.12,3051.95,3047.15,0.00173585,0.00172949
1671.0,0.000685461,635.286,3056.04,3051.24,0.000685461,0.000679101
1674.0,0.00104342,635.451,3060.13,3055.32,0.000539017,0.000532656
1677.0,5.69584e-05,635.616,3064.22,3059.41,0.000227878,0.000221517
1680.0,0.000393022,635.781,3068.3,3063.49,0.00075042,0.000744059
1683.0,0.00131477,635.946,3072.39,3067.56,0.000973285,0.000966924
1686.0,0.000573526,636.111,3076.47,3071.64,0.000537417,0.000531056
1689.0,0.000189373,636.276,3080.55,3075.71,0.000189373,0.000183011
1692.0,0.00114599,636.441,3084.63,3079.78,0.00114599,0.00113963
1695.0,0.000534135,636.606,3088.7,3083.85,0.000534135,0.000527773
1698.0,0.00300372,636.772,3092.77,3087.92,0.00246025,0.00245389
1701.0,0.00180157,636.937,3096.84,3091.98,0.00180157,0.00179521
1704.0,0.00100426,637.102,3100.91,3096.05,0.00139396,0.0013876
1707.0,0.00176794,637.267,3104.98,3100.11,0.00136179,0.00135543
1710.0,0.00157955,637.432,3109.04,3104.16,0.00136179,0.00135543
1713.0,0.000216556,637.597,3113.11,3108.22,0.000601342,0.000594979
1716.0,0.000604028,637.762,3117.17,3112.28,0.000601342,0.000594979
1719.0,0.00156089,637.927,3121.23,3116.33,0.00120553,0.00119917
1722.0,0.000321413,638.092,3125.28,3120.38,0.00110245,0.00109609
1725.0,0.00090049,638.258,3129.34,3124.43,0.00090049,0.000894126
1728.0,0.000716157,638.423,3133.39,3128.47,0.000853713,0.000847349
1731.0,0.000300062,638.588,3137.44,3132.51,0.000699393,0.000693029
1734.0,0.00111697,638.753,3141.49,3136.56,0.000699393,0.000693028
1737.0,0.00157126,638.918,3145.53,3140.6,0.00157126,0.0015649
1740.0,0.00104329,639.083,3149.58,3144.63,0.00104329,0.00103693
1743.0,0.0,639.248,3153.62,3148.67,0.000212422,0.000206057
1746.0,0.000860633,639.413,3157.66,3152.7,0.000724607,0.000718242
1749.0,0.00170581,639.578,3161.7,3156.73,0.00156379,0.00155742
1752.0,0.00183388,639.744,3165.73,3160.76,0.00183388,0.00182751
1755.0,0.00108629,639.909,3169.76,3164.79,0.00116355,0.00115718
1758.0,0.00135773,640.074,3173.79,3168.81,0.00135773,0.00135136
1761.0,0.00117617,640.239,3177.82,3172.84,0.00117617,0.0011698
1764.0,0.00125748,640.404,3181.85,3176.86,0.00125748,0.00125111
1767.0,0.0016337,640.569,3185.88,3180.88,0.0016337,0.00162734
1770.0,0.00123603,640.734,3189.9,3184.89,0.00123603,0.00122967
1773.0,0.00137836,640.899,3193.92,3188.91,0.00137836,0.001372
1776.0,0.00163185,641.065,3197.94,3192.92,0.00170899,0.00170263
1779.0,0.00266317,641.23,3201.96,3196.93,0.00213778,0.00213142
1782.0,0.00358268,641.395,3205.97,3200.94,0.00358268,0.00357632
1785.0,0.00252938,641.56,3209.98,3204.95,0.0027715,0.00276514
1788.0,0.00279293,641.725,3213.99,3208.95,0.00236951,0.00236315
1791.0,0.00211094,641.89,3218,3212.95,0.00236951,0.00236315
1794.0,0.00425474,642.055,3222.01,3216.95,0.00367003,0.00366367
1797.0,0.00313182,642.22,3226.01,3220.95,0.00330089,0.00329453
1800.0,0.0029495,642.385,3230.01,3224.95,0.00330089,0.00329453
1803.0,0.00490274,642.551,3234.01,3228.94,0.00410784,0.00410148
1806.0,0.00413268,642.716,3238.01,3232.93,0.00370286,0.0036965
1809.0,0.00346922,642.881,3242.01,3236.92,0.00330451,0.00329815
1812.0,0.00325611,643.046,3246,3240.91,0.00325611,0.00324975
1815.0,0.00320915,643.211,3249.99,3244.9,0.00332766,0.0033213
1818.0,0.00318913,643.376,3253.98,3248.88,0.00320337,0.00319701
1821.0,0.0048909,643.541,3257.97,3252.86,0.00396171,0.00395535
1824.0,0.00440606,643.706,3261.96,3256.84,0.00434075,0.00433439
1827.0,0.00402918,643.871,3265.94,3260.82,0.00402918,0.00402282
1830.0,0.00346756,644.037,3269.92,3264.79,0.00346756,0.0034612
1833.0,0.00436427,644.202,3273.9,3268.77,0.00403435,0.00402799
1836.0,0.00335094,644.367,3277.88,3272.74,0.00403435,0.00402799
1839.0,0.00466759,644.532,3281.86,3276.71,0.00450494,0.00449858
1842.0,0.00461818,644.697,3285.83,3280.68,0.00461818,0.00461182
1845.0,0.00508493,644.862,3289.8,3284.64,0.00489541,0.00488905
1848.0,0.00452855,645.027,3293.77,3288.61,0.00452855,0.00452219
1851.0,0.00403474,645.192,3297.74,3292.57,0.00416154,0.00415518
1854.0,0.00488099,645.357,3301.7,3296.53,0.00423985,0.00423349
1857.0,0.0027391,645.523,3305.67,3300.48,0.00340421,0.00339785
1860.0,0.00278745,645.688,3309.63,3304.44,0.00278745,0.00278109
1863.0,0.00288414,645.853,3313.59,3308.39,0.00288414,0.00287778
1866.0,0.00310197,646.018,3317.55,3312.34,0.00295024,0.00294388
1869.0,0.00331802,646.183,3321.5,3316.29,0.00331802,0.00331166
1872.0,0.00370196,646.348,3325.45,3320.24,0.00370196,0.0036956
1875.0,0.00271789,646.513,3329.41,3324.18,0.00297758,0.00297122
1878.0,0.00332615,646.678,3333.36,3328.13,0.0030565,0.00305014
1881.0,0.00248011,646.843,3337.3,3332.07,0.00248011,0.00247375
1884.0,0.00144728,647.009,3341.25,3336.01,0.00234986,0.0023435
1887.0,0.00286279,647.174,3345.19,3339.95,0.00259917,0.00259281
1890.0,0.00221067,647.339,3349.13,3343.88,0.00221067,0.00220431
1893.0,0.00264549,647.504,3353.07,3347.81,0.00228085,0.00227449
1896.0,0.00211677,647.669,3357.01,3351.74,0.00211677,0.00211041
1899.0,0.00181116,647.834,3360.94,3355.67,0.00181116,0.0018048
1902.0,0.00190009,647.999,3364.88,3359.6,0.00163859,0.00163223
1905.0,0.000727744,648.164,3368.81,3363.53,0.00131254,0.00130618
1908.0,0.00153574,648.33,3372.74,3367.45,0.00153574,0.00152938
1911.0,0.00167565,648.495,3376.66,3371.37,0.00144603,0.00143967
1914.0,0.00128,648.66,3380.59,3375.29,0.00128,0.00127364
1917.0,0.000597006,648.825,3384.51,3379.21,0.000732925,0.000726562
1920.0,0.00231058,648.99,3388.43,3383.12,0.00135746,0.0013511
1923.0,0.0,649.155,3392.35,3387.03,0.000408886,0.000402523
1926.0,0.000259246,649.32,3396.27,3390.95,0.000259246,0.000252883
1929.0,0.00244032,649.485,3400.19,3394.85,0.00193566,0.0019293
1932.0,0.00238717,649.65,3404.1,3398.76,0.00238717,0.00238081
1935.0,0.00259568,649.816,3408.01,3402.67,0.0025517,0.00254534
1938.0,0.000367185,649.981,3411.92,3406.57,0.000843057,0.000836694
1941.0,0.00149672,650.146,3415.83,3410.47,0.00149672,0.00149036
1944.0,0.00138334,650.311,3419.73,3414.37,0.00161175,0.00160539
1947.0,0.00151588,650.476,3423.63,3418.27,0.00151588,0.00150952
1950.0,0.00157351,650.641,3427.54,3422.16,0.00174055,0.00173419
1953.0,0.00235154,650.806,3431.44,3426.06,0.00257194,0.00256558
1956.0,0.00342507,650.971,3435.33,3429.95,0.00315441,0.00314805
1959.0,0.0021241,651.136,3439.23,3433.84,0.0021241,0.00211774
1962.0,0.00143184,651.302,3443.12,3437.72,0.00153933,0.00153297
1965.0,0.00166185,651.467,3447.01,3441.61,0.00166185,0.00165549
1968.0,0.00334703,651.632,3450.9,3445.49,0.0026952,0.00268884
1971.0,0.0023194,651.797,3454.79,3449.38,0.0023194,0.00231304
1974.0,0.00202677,651.962,3458.68,3453.25,0.00202677,0.00202041
1977.0,0.0022939,652.127,3462.56,3457.13,0.00274169,0.00273533
1980.0,0.00307589,652.292,3466.44,3461.01,0.00280296,0.0027966
1983.0,0.00239283,652.457,3470.32,3464.88,0.00239283,0.00238647
1986.0,0.00400598,652.622,3474.2,3468.75,0.00400598,0.00399962
1989.0,0.00444886,652.788,3478.07,3472.62,0.00444886,0.0044425
1992.0,0.00435225,652.953,3481.95,3476.49,0.00435225,0.00434589
1995.0,0.00444355,653.118,3485.82,3480.36,0.00444355,0.00443719
1998.0,0.00297152,653.283,3489.69,3484.22,0.00297152,0.00296516
2001.0,0.00117463,653.448,3493.56,3488.08,0.00171546,0.0017091
2004.0,0.00303276,653.613,3497.42,3491.94,0.0020787,0.00207234
2007.0,0.00222353,653.778,3501.29,3495.8,0.00297392,0.00296756
2010.0,0.00274323,653.943,3505.15,3499.66,0.00297392,0.00296756
2013.0,0.00368809,654.108,3509.01,3503.51,0.00300078,0.00299442
2016.0,0.00242169,654.274,3512.87,3507.36,0.00271989,0.00271353
2019.0,0.00293052,654.439,3516.72,3511.21,0.00271989,0.00271353
2022.0,0.00125898,654.604,3520.58,3515.06,0.00205805,0.00205169
2025.0,0.00300098,654.769,3524.43,3518.91,0.0023286,0.00232224
2028.0,0.00141322,654.934,3528.28,3522.75,0.00141322,0.00140686
2031.0,0.00164089,655.099,3532.13,3526.59,0.00156905,0.00156269
2034.0,0.00267427,655.264,3535.97,3530.43,0.00267427,0.00266791
2037.0,0.00243924,655.429,3539.82,3534.27,0.00243924,0.00243288
2040.0,0.00149344,655.595,3543.66,3538.11,0.00143127,0.00142491
2043.0,0.000277581,655.76,3547.5,3541.94,0.000277581,0.000271219
2046.0,0.000562247,655.925,3551.34,3545.78,8.15946e-05,7.52324e-05
2047.0,0.000169635,655.98,3552.62,3547.05,8.15946e-05,7.52324e-05