File: data/processed/processed_data/2024-09-03/2024-09-03_glycinepowder_n_y_y_solid_1000_0_1.csv
Pixels #,Intensity (a.u.),Wavelength (nm),Raman shift (cm-1),Raman shift (cm-1) adjusted,Filtered Intensity (a.u.),Baselined Filtered Intensity (a.u.)
0.0,0.00257606,543.337,392.223,393.994,0.000405437,0.000346259
3.0,0.00246685,543.502,397.81,399.573,0.00246685,0.00240767
6.0,0.00399379,543.667,403.394,405.15,0.00355648,0.0034973
9.0,0.00268751,543.832,408.974,410.723,0.00268751,0.00262833
12.0,0.00214514,543.997,414.551,416.293,0.00214514,0.00208597
15.0,0.0,544.162,420.125,421.859,0.00219714,0.00213797
18.0,0.00482206,544.327,425.695,427.422,0.00251339,0.00245422
21.0,0.00366413,544.492,431.261,432.981,0.00366413,0.00360496
24.0,0.0035855,544.657,436.825,438.537,0.00536825,0.00530908
27.0,0.0027722,544.822,442.385,444.09,0.0027722,0.00271303
30.0,0.00245443,544.987,447.941,449.64,0.00245443,0.00239526
33.0,0.000221256,545.152,453.494,455.186,0.000413722,0.000354557
36.0,0.0054399,545.317,459.044,460.728,0.00423613,0.00417697
39.0,0.00186692,545.482,464.591,466.268,0.00186692,0.00180776
42.0,0.00400899,545.647,470.134,471.804,0.00308302,0.00302386
45.0,0.0,545.812,475.674,477.337,0.00342173,0.00336258
48.0,0.00402131,545.977,481.21,482.866,0.00348107,0.00342192
51.0,0.0,546.142,486.743,488.392,0.000587472,0.000528322
54.0,0.00209144,546.307,492.273,493.915,0.00209144,0.00203229
57.0,0.00379481,546.472,497.8,499.434,0.00379481,0.00373566
60.0,0.00929764,546.637,503.323,504.95,0.00929764,0.0092385
63.0,0.0125308,546.802,508.843,510.463,0.0129034,0.0128443
66.0,0.0126691,546.967,514.359,515.972,0.013481,0.0134219
69.0,0.0130483,547.132,519.872,521.478,0.0138248,0.0137657
72.0,0.0170315,547.297,525.382,526.981,0.0166803,0.0166212
75.0,0.0196769,547.462,530.888,532.48,0.0196769,0.0196178
78.0,0.0204696,547.627,536.392,537.976,0.0214964,0.0214373
81.0,0.0276409,547.792,541.891,543.469,0.0234932,0.0234341
84.0,0.0212151,547.957,547.388,548.958,0.0243031,0.024244
87.0,0.0241327,548.122,552.881,554.444,0.0260321,0.025973
90.0,0.0233469,548.287,558.371,559.927,0.0218911,0.021832
93.0,0.0179808,548.452,563.858,565.407,0.0179808,0.0179217
96.0,0.0159565,548.617,569.341,570.883,0.0161999,0.0161408
99.0,0.0157339,548.782,574.821,576.356,0.0142301,0.014171
102.0,0.0099637,548.947,580.298,581.826,0.0110917,0.0110326
105.0,0.0151571,549.112,585.771,587.292,0.0116878,0.0116287
108.0,0.00723771,549.277,591.241,592.755,0.00981136,0.00975224
111.0,0.0110085,549.442,596.708,598.215,0.00981136,0.00975225
114.0,0.00838003,549.607,602.172,603.671,0.00898341,0.0089243
117.0,0.00610896,549.772,607.632,609.125,0.00714139,0.00708228
120.0,0.00696146,549.937,613.089,614.575,0.00603862,0.00597951
123.0,0.000564584,550.102,618.543,620.021,0.000564584,0.000505478
126.0,0.00898776,550.267,623.993,625.465,0.00898776,0.00892866
129.0,0.00900769,550.432,629.44,630.905,0.00900769,0.00894859
132.0,0.0041694,550.597,634.884,636.342,0.00472362,0.00466452
135.0,0.000889227,550.762,640.325,641.776,0.003,0.0029409
138.0,0.00223292,550.927,645.762,647.206,0.00223292,0.00217382
141.0,0.00421018,551.092,651.197,652.633,0.00333879,0.0032797
144.0,0.00330029,551.257,656.627,658.057,0.00333879,0.0032797
147.0,0.0,551.422,662.055,663.478,0.00273971,0.00268062
150.0,0.00356336,551.587,667.48,668.895,0.00273971,0.00268062
153.0,0.00605942,551.752,672.901,674.309,0.0035626,0.00350351
156.0,0.00598891,551.917,678.319,679.72,0.00478327,0.00472418
159.0,0.00591924,552.082,683.733,685.128,0.00496715,0.00490807
162.0,0.00369758,552.247,689.145,690.533,0.00369758,0.0036385
165.0,0.00142951,552.412,694.553,695.934,0.00142951,0.00137043
168.0,0.00557092,552.577,699.958,701.332,0.00557092,0.00551184
171.0,0.00500589,552.742,705.36,706.727,0.00500589,0.00494681
174.0,0.0060626,552.907,710.758,712.118,0.0060626,0.00600352
177.0,0.00873076,553.072,716.154,717.507,0.00694793,0.00688886
180.0,0.00698598,553.237,721.546,722.892,0.00698598,0.00692691
183.0,0.0149858,553.402,726.935,728.274,0.012245,0.0121859
186.0,0.00892858,553.567,732.32,733.652,0.00892858,0.00886951
189.0,0.0088357,553.732,737.703,739.028,0.00821992,0.00816085
192.0,0.0107544,553.897,743.082,744.4,0.0107544,0.0106953
195.0,0.0145449,554.062,748.458,749.769,0.0132649,0.0132058
198.0,0.016245,554.227,753.831,755.135,0.0134698,0.0134107
201.0,0.0128416,554.392,759.201,760.498,0.0128416,0.0127825
204.0,0.015113,554.557,764.567,765.858,0.015113,0.0150539
207.0,0.0220973,554.722,769.93,771.214,0.0220973,0.0220382
210.0,0.0217451,554.887,775.29,776.567,0.022521,0.0224619
213.0,0.0253406,555.052,780.647,781.917,0.0253406,0.0252815
216.0,0.0292236,555.217,786.001,787.264,0.0292236,0.0291645
219.0,0.0300048,555.382,791.352,792.608,0.0300048,0.0299457
222.0,0.045222,555.546,796.699,797.948,0.0440381,0.043979
225.0,0.0468273,555.711,802.043,803.285,0.0468273,0.0467682
228.0,0.0555214,555.876,807.384,808.62,0.0562075,0.0561485
231.0,0.0635138,556.041,812.722,813.951,0.0635138,0.0634548
234.0,0.0714512,556.206,818.057,819.278,0.0719045,0.0718455
237.0,0.0781074,556.371,823.388,824.603,0.0756205,0.0755615
240.0,0.0798667,556.536,828.716,829.924,0.0798667,0.0798077
243.0,0.10275,556.701,834.042,835.243,0.0986951,0.0986361
246.0,0.099407,556.866,839.364,840.558,0.100321,0.100262
249.0,0.100319,557.031,844.682,845.87,0.100321,0.100262
252.0,0.112286,557.196,849.998,851.179,0.110149,0.11009
255.0,0.103783,557.361,855.311,856.485,0.103783,0.103724
258.0,0.10569,557.526,860.62,861.787,0.103524,0.103465
261.0,0.110757,557.691,865.927,867.087,0.110757,0.110698
264.0,0.114387,557.856,871.23,872.383,0.114387,0.114328
267.0,0.110325,558.021,876.53,877.676,0.118109,0.11805
270.0,0.128586,558.186,881.827,882.966,0.128586,0.128527
273.0,0.134163,558.351,887.12,888.253,0.129302,0.129243
276.0,0.122817,558.516,892.411,893.537,0.122817,0.122758
279.0,0.10748,558.681,897.698,898.818,0.10748,0.107421
282.0,0.0778219,558.846,902.983,904.095,0.0778219,0.0777629
285.0,0.0542945,559.011,908.264,909.37,0.0557822,0.0557232
288.0,0.0442803,559.176,913.542,914.641,0.0442803,0.0442213
291.0,0.0425256,559.341,918.817,919.909,0.0371633,0.0371043
294.0,0.0245505,559.506,924.089,925.174,0.0356196,0.0355606
297.0,0.0340445,559.671,929.358,930.436,0.0334033,0.0333443
300.0,0.0249778,559.836,934.624,935.695,0.0279665,0.0279075
303.0,0.0166783,560.001,939.886,940.951,0.0207695,0.0207105
306.0,0.0149012,560.166,945.146,946.204,0.0149012,0.0148422
309.0,0.00879402,560.331,950.402,951.454,0.00926246,0.00920345
312.0,0.00632452,560.496,955.656,956.7,0.00926246,0.00920345
315.0,0.0136903,560.661,960.906,961.944,0.0121735,0.0121145
318.0,0.000580144,560.826,966.153,967.184,0.00247196,0.00241296
321.0,0.00624534,560.991,971.397,972.421,0.00624534,0.00618634
324.0,0.0129864,561.156,976.638,977.655,0.0102465,0.0101875
327.0,0.00405938,561.321,981.876,982.887,0.00752994,0.00747094
330.0,0.00551764,561.486,987.111,988.115,0.00551764,0.00545864
333.0,0.00142672,561.651,992.342,993.34,0.00358207,0.00352307
336.0,0.0121476,561.816,997.571,998.562,0.0142448,0.0141858
339.0,0.0130116,561.981,1002.8,1003.78,0.0130116,0.0129526
342.0,0.0154734,562.146,1008.02,1009,0.0127829,0.0127239
345.0,0.0111551,562.311,1013.24,1014.21,0.0135971,0.0135381
348.0,0.0183405,562.476,1018.45,1019.42,0.018846,0.018787
351.0,0.024691,562.641,1023.67,1024.63,0.024691,0.024632
354.0,0.0274978,562.806,1028.88,1029.83,0.0275829,0.0275239
357.0,0.0198782,562.971,1034.09,1035.03,0.0220401,0.0219811
360.0,0.0365862,563.136,1039.29,1040.23,0.0275271,0.0274681
363.0,0.0184741,563.301,1044.49,1045.42,0.0229552,0.0228962
366.0,0.0213565,563.466,1049.69,1050.61,0.0213565,0.0212975
369.0,0.0164815,563.631,1054.88,1055.8,0.0131708,0.0131118
372.0,0.00465691,563.796,1060.08,1060.99,0.00479459,0.00473561
375.0,0.00593268,563.961,1065.27,1066.17,0.00593268,0.0058737
378.0,0.0188237,564.126,1070.45,1071.35,0.0139588,0.0138998
381.0,0.010913,564.291,1075.63,1076.52,0.010913,0.010854
384.0,0.00986576,564.456,1080.81,1081.7,0.00986576,0.00980678
387.0,0.0158201,564.621,1085.99,1086.87,0.0180232,0.0179642
390.0,0.0288363,564.786,1091.16,1092.03,0.0230791,0.0230201
393.0,0.0150285,564.951,1096.34,1097.2,0.0230791,0.0230201
396.0,0.0201888,565.116,1101.5,1102.36,0.0201888,0.0201298
399.0,0.0136805,565.281,1106.67,1107.52,0.0126261,0.0125671
402.0,0.0136339,565.446,1111.83,1112.67,0.0136339,0.0135749
405.0,0.00771729,565.611,1116.99,1117.82,0.00958725,0.00952828
408.0,0.00982116,565.776,1122.14,1122.97,0.00958725,0.00952828
411.0,0.0182713,565.941,1127.3,1128.12,0.015691,0.015632
414.0,0.00918019,566.106,1132.45,1133.26,0.00918019,0.00912122
417.0,0.0125935,566.271,1137.59,1138.4,0.0125935,0.0125345
420.0,0.00681056,566.436,1142.74,1143.54,0.00688966,0.00683069
423.0,0.014867,566.601,1147.88,1148.67,0.0108507,0.0107917
426.0,0.0,566.766,1153.02,1153.81,0.0108044,0.0107454
429.0,0.0127441,566.931,1158.15,1158.93,0.0127441,0.0126851
432.0,0.0109534,567.096,1163.28,1164.06,0.0109534,0.0108944
435.0,0.007348,567.261,1168.41,1169.18,0.00255945,0.00250049
438.0,0.00572294,567.426,1173.54,1174.3,0.00572294,0.00566398
441.0,0.00721049,567.591,1178.66,1179.42,0.00729495,0.00723599
444.0,0.0154122,567.756,1183.78,1184.53,0.0154122,0.0153532
447.0,0.0174098,567.921,1188.9,1189.64,0.01659,0.016531
450.0,0.00382548,568.086,1194.01,1194.75,0.0121606,0.0121016
453.0,0.0166098,568.251,1199.12,1199.85,0.0128769,0.0128179
456.0,0.0139596,568.416,1204.23,1204.95,0.0139596,0.0139006
459.0,0.0201544,568.58,1209.33,1210.05,0.0147806,0.0147216
462.0,0.00103153,568.745,1214.44,1215.15,0.00371253,0.00365357
465.0,0.0126905,568.91,1219.53,1220.24,0.0104263,0.0103673
468.0,0.0106477,569.075,1224.63,1225.33,0.00949763,0.00943867
471.0,0.0,569.24,1229.72,1230.42,0.00778411,0.00772516
474.0,0.0275792,569.405,1234.81,1235.5,0.0245179,0.0244589
477.0,0.00948511,569.57,1239.9,1240.58,0.0119676,0.0119087
480.0,0.0189977,569.735,1244.99,1245.66,0.0179982,0.0179393
483.0,0.0122209,569.9,1250.07,1250.73,0.0142014,0.0141425
486.0,0.0107625,570.065,1255.14,1255.8,0.0107625,0.0107036
489.0,0.0051715,570.23,1260.22,1260.87,0.0051715,0.00511256
492.0,0.0122738,570.395,1265.29,1265.94,0.00994277,0.00988383
495.0,0.016065,570.56,1270.36,1271,0.00994277,0.00988383
498.0,0.00691051,570.725,1275.43,1276.06,0.00691051,0.00685157
501.0,0.0,570.89,1280.49,1281.12,0.00145422,0.00139528
504.0,0.0161164,571.055,1285.55,1286.17,0.0134329,0.013374
507.0,0.00987018,571.22,1290.61,1291.22,0.00987018,0.00981125
510.0,0.0,571.385,1295.67,1296.27,0.00858812,0.00852919
513.0,0.0301091,571.55,1300.72,1301.32,0.0196384,0.0195795
516.0,0.0167197,571.715,1305.77,1306.36,0.0196384,0.0195795
519.0,0.0342815,571.88,1310.81,1311.4,0.0342815,0.0342226
522.0,0.081875,572.045,1315.86,1316.44,0.0814555,0.0813966
525.0,0.0696228,572.21,1320.9,1321.47,0.0777359,0.077677
528.0,0.0653862,572.375,1325.94,1326.5,0.0653862,0.0653273
531.0,0.0558889,572.54,1330.97,1331.53,0.0558889,0.05583
534.0,0.0200129,572.705,1336,1336.56,0.0200129,0.019954
537.0,0.00392671,572.87,1341.03,1341.58,0.000920434,0.000861514
540.0,0.0119753,573.035,1346.06,1346.6,0.000920434,0.000861515
543.0,0.000373846,573.2,1351.08,1351.61,0.00674562,0.0066867
546.0,0.00591164,573.365,1356.1,1356.63,0.00763173,0.00757281
549.0,0.0105645,573.53,1361.12,1361.64,0.00763173,0.00757282
552.0,0.0072958,573.695,1366.13,1366.65,0.00320439,0.00314548
555.0,0.00335397,573.86,1371.14,1371.65,0.00571558,0.00565667
558.0,0.0023047,574.025,1376.15,1376.65,0.00649778,0.00643887
561.0,0.0147922,574.19,1381.16,1381.65,0.0147922,0.0147333
564.0,0.011593,574.355,1386.16,1386.65,0.0161132,0.0160543
567.0,0.0200635,574.52,1391.16,1391.64,0.0200689,0.02001
570.0,0.0286542,574.685,1396.16,1396.63,0.0252413,0.0251824
573.0,0.0266617,574.85,1401.15,1401.62,0.0252413,0.0251824
576.0,0.0284854,575.015,1406.14,1406.61,0.0295047,0.0294458
579.0,0.0288234,575.18,1411.13,1411.59,0.0295644,0.0295055
582.0,0.0195597,575.345,1416.12,1416.57,0.0195597,0.0195008
585.0,0.0184928,575.51,1421.1,1421.54,0.016233,0.0161741
588.0,0.00377239,575.675,1426.08,1426.52,0.00488298,0.00482409
591.0,0.0132813,575.84,1431.06,1431.49,0.0132813,0.0132224
594.0,0.0108841,576.005,1436.03,1436.46,0.0145965,0.0145376
597.0,0.0204547,576.17,1441,1441.42,0.0145965,0.0145376
600.0,0.0123016,576.335,1445.97,1446.38,0.0123016,0.0122427
603.0,0.0151434,576.5,1450.94,1451.34,0.0151434,0.0150845
606.0,0.00286769,576.665,1455.9,1456.3,0.0113786,0.0113197
609.0,0.0201509,576.83,1460.86,1461.25,0.0137499,0.013691
612.0,0.00750839,576.995,1465.82,1466.2,0.00913441,0.00907554
615.0,0.00649043,577.16,1470.77,1471.15,0.00449077,0.0044319
618.0,0.000648508,577.325,1475.72,1476.1,0.000648508,0.000589642
621.0,0.0,577.49,1480.67,1481.04,0.000175479,0.000116616
624.0,0.00542625,577.655,1485.62,1485.98,0.00542625,0.00536739
627.0,0.00975394,577.82,1490.56,1490.91,0.0108433,0.0107844
630.0,0.0225869,577.985,1495.5,1495.85,0.0165738,0.0165149
633.0,0.00943829,578.15,1500.44,1500.78,0.0125728,0.0125139
636.0,0.01036,578.315,1505.37,1505.71,0.0125728,0.012514
639.0,0.0159272,578.48,1510.3,1510.63,0.0180945,0.0180357
642.0,0.0328352,578.645,1515.23,1515.55,0.0254365,0.0253777
645.0,0.0146467,578.81,1520.16,1520.47,0.0146467,0.0145879
648.0,0.00409359,578.975,1525.08,1525.39,0.00645043,0.0063916
651.0,0.00261347,579.14,1530,1530.31,0.00717938,0.00712055
654.0,0.00233774,579.305,1534.92,1535.22,0.00717938,0.00712055
657.0,0.0160484,579.47,1539.83,1540.13,0.00939443,0.00933561
660.0,0.0202005,579.635,1544.75,1545.03,0.011759,0.0117002
663.0,0.0106543,579.8,1549.65,1549.93,0.0091172,0.00905838
666.0,0.0113299,579.965,1554.56,1554.83,0.0110509,0.0109921
669.0,0.0207869,580.13,1559.47,1559.73,0.0207869,0.0207281
672.0,0.0279693,580.295,1564.37,1564.63,0.0274323,0.0273735
675.0,0.019885,580.46,1569.26,1569.52,0.00886983,0.00881102
678.0,0.00166653,580.625,1574.16,1574.41,0.00426377,0.00420497
681.0,0.0237244,580.79,1579.05,1579.29,0.0213082,0.0212494
684.0,0.0172503,580.955,1583.94,1584.18,0.0172503,0.0171915
687.0,0.0118149,581.12,1588.83,1589.06,0.0118149,0.0117561
690.0,0.00364023,581.285,1593.71,1593.94,0.00803128,0.00797249
693.0,0.00158957,581.45,1598.59,1598.81,0.00737226,0.00731347
696.0,0.0063379,581.614,1603.47,1603.68,0.0063379,0.00627911
699.0,0.00906458,581.779,1608.35,1608.55,0.00693703,0.00687825
702.0,0.00500233,581.944,1613.22,1613.42,0.00459478,0.004536
705.0,0.0,582.109,1618.09,1618.28,0.000204089,0.000145312
708.0,0.00769121,582.274,1622.96,1623.15,0.00769121,0.00763244
711.0,0.0157531,582.439,1627.83,1628,0.0142223,0.0141635
714.0,0.0114828,582.604,1632.69,1632.86,0.0114828,0.011424
717.0,0.0157804,582.769,1637.55,1637.71,0.00871798,0.00865921
720.0,0.00168971,582.934,1642.4,1642.56,0.00451639,0.00445763
723.0,0.0,583.099,1647.26,1647.41,0.00451639,0.00445763
726.0,0.00998573,583.264,1652.11,1652.26,0.00619317,0.00613441
729.0,0.00119687,583.429,1656.96,1657.1,0.00619317,0.00613442
732.0,0.0168595,583.594,1661.8,1661.94,0.0110436,0.0109849
735.0,0.0203528,583.759,1666.65,1666.77,0.0203528,0.0202941
738.0,0.0160644,583.924,1671.49,1671.61,0.0165157,0.016457
741.0,0.0144497,584.089,1676.32,1676.44,0.0146509,0.0145922
744.0,0.00854478,584.254,1681.16,1681.27,0.0100507,0.00999196
747.0,0.00487227,584.419,1685.99,1686.09,0.00482969,0.00477096
750.0,0.0,584.584,1690.82,1690.92,0.00131118,0.00125245
753.0,0.0137659,584.749,1695.65,1695.74,0.00776336,0.00770463
756.0,0.00311119,584.914,1700.47,1700.55,0.0112689,0.0112102
759.0,0.0214713,585.079,1705.29,1705.37,0.0191824,0.0191237
762.0,0.0236396,585.244,1710.11,1710.18,0.0191824,0.0191237
765.0,0.000266373,585.409,1714.92,1714.99,0.00415686,0.00409815
768.0,0.0043694,585.574,1719.74,1719.8,0.0080725,0.00801379
771.0,0.00692511,585.739,1724.55,1724.6,0.00692511,0.0068664
774.0,0.0209778,585.904,1729.35,1729.4,0.0209778,0.0209191
777.0,0.00519782,586.069,1734.16,1734.2,0.00669648,0.00663778
780.0,0.00475418,586.234,1738.96,1739,0.00669648,0.00663778
783.0,0.00286409,586.399,1743.76,1743.79,0.00737866,0.00731997
786.0,0.00880971,586.564,1748.56,1748.58,0.00880971,0.00875102
789.0,0.0144698,586.729,1753.35,1753.37,0.00670562,0.00664694
792.0,0.00302204,586.894,1758.14,1758.15,0.000253441,0.00019476
795.0,0.00366979,587.059,1762.93,1762.94,0.00366979,0.00361111
798.0,0.0214635,587.224,1767.72,1767.72,0.0235069,0.0234482
801.0,0.0233591,587.389,1772.5,1772.49,0.0233591,0.0233004
804.0,0.0141102,587.554,1777.28,1777.27,0.0146612,0.0146025
807.0,0.0150849,587.719,1782.06,1782.04,0.0150849,0.0150262
810.0,0.01083,587.884,1786.83,1786.81,0.0117523,0.0116936
813.0,0.00987758,588.049,1791.61,1791.57,0.0117523,0.0116936
816.0,0.00520272,588.214,1796.38,1796.34,0.00520272,0.00514407
819.0,0.00536592,588.379,1801.14,1801.1,0.00786019,0.00780154
822.0,0.0113913,588.544,1805.91,1805.86,0.00934806,0.00928941
825.0,0.00449927,588.709,1810.67,1810.61,0.00449927,0.00444063
828.0,0.00436631,588.874,1815.43,1815.37,0.00577777,0.00571913
831.0,0.00352038,589.039,1820.19,1820.12,0.00352038,0.00346175
834.0,0.000604639,589.204,1824.94,1824.86,0.000604639,0.000546008
837.0,0.00242825,589.369,1829.69,1829.61,0.00242825,0.00236962
840.0,0.0098773,589.534,1834.44,1834.35,0.00679984,0.00674122
843.0,0.00277035,589.699,1839.18,1839.09,0.00965447,0.00959585
846.0,0.00511681,589.864,1843.93,1843.83,0.0109857,0.0109271
849.0,0.0165953,590.029,1848.67,1848.56,0.0109857,0.0109271
852.0,0.00922821,590.194,1853.41,1853.29,0.0107517,0.0106931
855.0,0.00469667,590.359,1858.14,1858.02,0.00469667,0.00463806
858.0,0.00496483,590.524,1862.87,1862.75,0.00496483,0.00490623
861.0,0.0133126,590.689,1867.6,1867.47,0.0133126,0.013254
864.0,0.0062532,590.854,1872.33,1872.2,0.0130749,0.0130163
867.0,0.0186692,591.019,1877.06,1876.91,0.0113281,0.0112695
870.0,0.00356389,591.184,1881.78,1881.63,0.00775967,0.00770108
873.0,0.00322523,591.349,1886.5,1886.34,0.00775967,0.00770108
876.0,0.0190157,591.514,1891.21,1891.05,0.0107713,0.0107127
879.0,0.00754201,591.679,1895.93,1895.76,0.00875773,0.00869915
882.0,0.00456898,591.844,1900.64,1900.47,0.00875773,0.00869915
885.0,0.0115029,592.009,1905.35,1905.17,0.0132251,0.0131665
888.0,0.0130474,592.174,1910.05,1909.87,0.013197,0.0131384
891.0,0.0102804,592.339,1914.76,1914.57,0.00978823,0.00972966
894.0,0.00553235,592.504,1919.46,1919.26,0.00553235,0.00547378
897.0,0.00822719,592.669,1924.16,1923.96,0.00822719,0.00816863
900.0,0.00336616,592.834,1928.85,1928.64,0.00496164,0.00490308
903.0,0.013192,592.999,1933.55,1933.33,0.0113213,0.0112627
906.0,0.0119158,593.164,1938.24,1938.02,0.0119158,0.0118572
909.0,0.0,593.329,1942.93,1942.7,0.00431748,0.00425893
912.0,0.0174918,593.494,1947.61,1947.38,0.0133825,0.013324
915.0,0.00673148,593.659,1952.29,1952.05,0.0124113,0.0123528
918.0,0.0175744,593.824,1956.97,1956.73,0.0131297,0.0130712
921.0,0.0187201,593.989,1961.65,1961.4,0.0186288,0.0185703
924.0,0.00470184,594.154,1966.33,1966.07,0.00536213,0.0053036
927.0,0.0,594.319,1971,1970.73,0.0,-5.85285e-05
930.0,0.00631334,594.484,1975.67,1975.4,0.00631334,0.00625481
933.0,0.0,594.648,1980.33,1980.06,0.00700323,0.00694471
936.0,0.014216,594.813,1985,1984.72,0.00550918,0.00545066
939.0,0.00200408,594.978,1989.66,1989.37,0.004174,0.00411548
942.0,0.0155175,595.143,1994.32,1994.03,0.0138487,0.0137902
945.0,0.00809135,595.308,1998.98,1998.68,0.0107855,0.010727
948.0,0.0198171,595.473,2003.63,2003.33,0.0107968,0.0107383
951.0,0.00235945,595.638,2008.28,2007.97,0.00259198,0.00253348
954.0,0.0127238,595.803,2012.93,2012.62,0.0127238,0.0126653
957.0,0.0201594,595.968,2017.58,2017.26,0.0201594,0.0201009
960.0,0.00622403,596.133,2022.22,2021.89,0.00622403,0.00616554
963.0,0.00567587,596.298,2026.86,2026.53,0.00541302,0.00535453
966.0,0.0,596.463,2031.5,2031.16,0.00423802,0.00417953
969.0,0.00768418,596.628,2036.14,2035.79,0.00768418,0.0076257
972.0,0.00637899,596.793,2040.77,2040.42,0.00934997,0.00929149
975.0,0.0126383,596.958,2045.4,2045.05,0.0126383,0.0125798
978.0,0.00762815,597.123,2050.03,2049.67,0.0105738,0.0105153
981.0,0.00175417,597.288,2054.66,2054.29,0.0100448,0.00998633
984.0,0.0215359,597.453,2059.28,2058.91,0.0102647,0.0102062
987.0,0.000205657,597.618,2063.9,2063.52,0.00467475,0.00461628
990.0,0.00663672,597.783,2068.52,2068.13,0.00467475,0.00461629
993.0,0.000114443,597.948,2073.14,2072.74,0.00267066,0.0026122
996.0,0.0129776,598.113,2077.75,2077.35,0.006068,0.00600954
999.0,0.00748986,598.278,2082.36,2081.95,0.00866312,0.00860467
1002.0,0.00125276,598.443,2086.97,2086.56,0.00711185,0.0070534
1005.0,0.00631686,598.608,2091.57,2091.16,0.00711185,0.0070534
1008.0,0.0126959,598.773,2096.18,2095.75,0.0157835,0.0157251
1011.0,0.00747385,598.938,2100.78,2100.35,0.0117257,0.0116673
1014.0,0.0107149,599.103,2105.38,2104.94,0.00945237,0.00939393
1017.0,0.0,599.268,2109.97,2109.53,0.000541695,0.000483262
1020.0,0.00956744,599.433,2114.56,2114.12,0.000547759,0.000489329
1023.0,0.00109519,599.598,2119.15,2118.7,0.00700036,0.00694193
1026.0,0.00776252,599.763,2123.74,2123.28,0.00797527,0.00791685
1029.0,0.0026968,599.928,2128.33,2127.86,0.00446836,0.00440994
1032.0,0.012502,600.093,2132.91,2132.44,0.00729948,0.00724107
1035.0,0.00947294,600.258,2137.49,2137.01,0.0154236,0.0153652
1038.0,0.0265093,600.423,2142.07,2141.59,0.020908,0.0208496
1041.0,0.00464727,600.588,2146.64,2146.15,0.00464727,0.00458887
1044.0,0.0,600.753,2151.22,2150.72,0.00199328,0.00193488
1047.0,0.000915541,600.918,2155.79,2155.29,0.000915541,0.000857146
1050.0,0.0,601.083,2160.35,2159.85,0.0,-5.83912e-05
1053.0,0.020368,601.248,2164.92,2164.41,0.0181714,0.018113
1056.0,0.0121772,601.413,2169.48,2168.96,0.0121772,0.0121188
1059.0,0.00490356,601.578,2174.04,2173.52,0.00508499,0.00502661
1062.0,0.0071894,601.743,2178.6,2178.07,0.00887148,0.0088131
1065.0,0.00430274,601.908,2183.16,2182.62,0.00850838,0.00845
1068.0,0.011159,602.073,2187.71,2187.17,0.00920814,0.00914977
1071.0,0.0167532,602.238,2192.26,2191.71,0.0142617,0.0142033
1074.0,0.0104291,602.403,2196.81,2196.25,0.0142617,0.0142033
1077.0,0.0180144,602.568,2201.35,2200.79,0.019576,0.0195176
1080.0,0.0171983,602.733,2205.89,2205.33,0.0171983,0.0171399
1083.0,0.00231062,602.898,2210.43,2209.86,0.00194317,0.00188481
1086.0,0.000793469,603.063,2214.97,2214.4,0.000793469,0.000735114
1089.0,0.0114174,603.228,2219.51,2218.92,0.0114174,0.011359
1092.0,0.00571952,603.393,2224.04,2223.45,0.0113885,0.0113301
1095.0,0.0180428,603.558,2228.57,2227.98,0.0126383,0.01258
1098.0,0.0101219,603.723,2233.1,2232.5,0.0108576,0.0107993
1101.0,0.0141683,603.888,2237.62,2237.02,0.0141683,0.01411
1104.0,0.00573824,604.053,2242.15,2241.54,0.00765958,0.00760124
1107.0,0.00250647,604.218,2246.67,2246.05,0.00409478,0.00403644
1110.0,0.00738667,604.383,2251.19,2250.56,0.00825319,0.00819486
1113.0,0.00801926,604.548,2255.7,2255.07,0.00901514,0.00895681
1116.0,0.00513134,604.713,2260.21,2259.58,0.00795786,0.00789953
1119.0,0.016762,604.878,2264.72,2264.08,0.015457,0.0153987
1122.0,0.010568,605.043,2269.23,2268.59,0.015457,0.0153987
1125.0,0.020867,605.208,2273.74,2273.09,0.0123294,0.0122711
1128.0,0.0,605.373,2278.24,2277.58,0.00488088,0.00482256
1131.0,0.0114498,605.538,2282.74,2282.08,0.00960674,0.00954842
1134.0,0.00776562,605.703,2287.24,2286.57,0.00709391,0.00703559
1137.0,0.00360519,605.868,2291.74,2291.06,0.00695979,0.00690148
1140.0,0.00769595,606.033,2296.23,2295.55,0.0102394,0.0101811
1143.0,0.0058113,606.198,2300.72,2300.03,0.0058113,0.00575299
1146.0,0.000686656,606.363,2305.21,2304.52,0.0,-5.83069e-05
1149.0,0.00632268,606.528,2309.7,2309,0.00376661,0.0037083
1152.0,0.0,606.693,2314.18,2313.47,0.00376661,0.00370831
1155.0,0.0142648,606.858,2318.66,2317.95,0.0142648,0.0142065
1158.0,0.0167859,607.023,2323.14,2322.42,0.0167859,0.0167276
1161.0,0.0114502,607.188,2327.62,2326.89,0.0122193,0.012161
1164.0,0.00690195,607.353,2332.09,2331.36,0.0122193,0.012161
1167.0,0.00793014,607.518,2336.56,2335.83,0.00793014,0.00787184
1170.0,0.00585134,607.682,2341.03,2340.29,0.00191049,0.0018522
1173.0,0.0,607.847,2345.5,2344.75,0.0,-5.82927e-05
1176.0,0.0066544,608.012,2349.96,2349.21,0.000232501,0.000174209
1179.0,0.0,608.177,2354.42,2353.67,0.000232501,0.00017421
1182.0,0.00219233,608.342,2358.88,2358.12,0.00219233,0.00213404
1185.0,0.0147396,608.507,2363.34,2362.57,0.0109506,0.0108923
1188.0,0.016306,608.672,2367.79,2367.02,0.0115694,0.0115111
1191.0,0.00394756,608.837,2372.25,2371.47,0.00394756,0.00388927
1194.0,4.57771e-05,609.002,2376.7,2375.91,0.000190738,0.000132453
1197.0,0.00723074,609.167,2381.14,2380.35,0.00728043,0.00722215
1200.0,7.01856e-05,609.332,2385.59,2384.79,0.00183871,0.00178043
1203.0,0.0148952,609.497,2390.03,2389.23,0.00658143,0.00652315
1206.0,0.00377773,609.662,2394.47,2393.66,0.00735322,0.00729494
1209.0,0.00702481,609.827,2398.91,2398.09,0.00735322,0.00729494
1212.0,0.00366969,609.992,2403.34,2402.52,0.00928772,0.00922944
1215.0,0.00468901,610.157,2407.78,2406.95,0.00843009,0.00837181
1218.0,0.0094819,610.322,2412.21,2411.38,0.00843009,0.00837181
1221.0,0.0174795,610.487,2416.63,2415.8,0.0114636,0.0114053
1224.0,0.00856275,610.652,2421.06,2420.22,0.00957242,0.00951415
1227.0,0.00282827,610.817,2425.48,2424.64,0.00282827,0.00277
1230.0,0.00593625,610.982,2429.9,2429.05,0.00394024,0.00388197
1233.0,0.00199002,611.147,2434.32,2433.46,0.00297788,0.00291961
1236.0,0.00934121,611.312,2438.74,2437.87,0.00623486,0.00617659
1239.0,0.00347836,611.477,2443.15,2442.28,0.00463502,0.00457675
1242.0,0.00507789,611.642,2447.56,2446.69,0.00463502,0.00457675
1245.0,0.00802544,611.807,2451.97,2451.09,0.00741207,0.0073538
1248.0,0.000713359,611.972,2456.38,2455.49,0.00360663,0.00354836
1251.0,0.0122976,612.137,2460.78,2459.89,0.0122976,0.0122393
1254.0,0.0142671,612.302,2465.19,2464.29,0.0142671,0.0142088
1257.0,0.00812518,612.467,2469.59,2468.68,0.0107348,0.0106765
1260.0,0.00890438,612.632,2473.98,2473.07,0.0108384,0.0107801
1263.0,0.0199815,612.797,2478.38,2477.46,0.0199815,0.0199232
1266.0,0.00985386,612.962,2482.77,2481.85,0.00985386,0.00979561
1269.0,0.00135805,613.127,2487.16,2486.23,0.00135805,0.0012998
1272.0,0.0135798,613.292,2491.55,2490.61,0.0135798,0.0135215
1275.0,0.0211748,613.457,2495.93,2494.99,0.0176758,0.0176176
1278.0,0.0142579,613.622,2500.32,2499.37,0.0142579,0.0141997
1281.0,0.00398876,613.787,2504.7,2503.75,0.00806844,0.00801019
1284.0,0.0198699,613.952,2509.07,2508.12,0.0118056,0.0117474
1287.0,0.0110804,614.117,2513.45,2512.49,0.0110804,0.0110222
1290.0,0.0,614.282,2517.82,2516.86,0.0,-5.82422e-05
1293.0,0.00197604,614.447,2522.19,2521.22,0.00565983,0.00560159
1296.0,0.0112883,614.612,2526.56,2525.59,0.00875908,0.00870084
1299.0,0.0129722,614.777,2530.93,2529.95,0.0129722,0.012914
1302.0,0.00697904,614.942,2535.29,2534.3,0.00697904,0.0069208
1305.0,0.0145177,615.107,2539.66,2538.66,0.00878874,0.0087305
1308.0,0.011781,615.272,2544.02,2543.01,0.011781,0.0117228
1311.0,0.012235,615.437,2548.37,2547.37,0.012235,0.0121768
1314.0,0.0025243,615.602,2552.73,2551.72,0.00636421,0.00630598
1317.0,0.0150571,615.767,2557.08,2556.06,0.00764168,0.00758345
1320.0,0.0,615.932,2561.43,2560.41,0.00211589,0.00205766
1323.0,0.00183108,616.097,2565.78,2564.75,0.00211589,0.00205766
1326.0,0.0197681,616.262,2570.12,2569.09,0.0148064,0.0147482
1329.0,0.0,616.427,2574.47,2573.43,0.00124933,0.0011911
1332.0,0.000620216,616.592,2578.81,2577.76,0.000801537,0.000743308
1335.0,0.0,616.757,2583.15,2582.09,0.00290398,0.00284575
1338.0,0.0107368,616.922,2587.48,2586.42,0.0107368,0.0106786
1341.0,0.0,617.087,2591.82,2590.75,0.00977314,0.00971491
1344.0,0.0159524,617.252,2596.15,2595.08,0.004221,0.00416277
1347.0,0.00515651,617.417,2600.48,2599.4,0.00515651,0.00509828
1350.0,0.00450987,617.582,2604.8,2603.72,0.00574756,0.00568933
1353.0,0.00376495,617.747,2609.13,2608.04,0.00349362,0.00343539
1356.0,0.0,617.912,2613.45,2612.36,0.00316625,0.00310802
1359.0,0.0153626,618.077,2617.77,2616.67,0.00316625,0.00310802
1362.0,0.00695564,618.242,2622.09,2620.99,0.00695564,0.00689741
1365.0,0.00750712,618.407,2626.4,2625.3,0.00967288,0.00961466
1368.0,0.00747494,618.572,2630.72,2629.6,0.00664892,0.0065907
1371.0,0.000794722,618.737,2635.03,2633.91,0.000584946,0.000526723
1374.0,0.00208286,618.902,2639.34,2638.21,0.00208286,0.00202464
1377.0,0.0100601,619.067,2643.64,2642.51,0.0107563,0.0106981
1380.0,0.0117041,619.232,2647.95,2646.81,0.0117041,0.0116459
1383.0,0.0,619.397,2652.25,2651.11,0.000547522,0.0004893
1386.0,0.0240252,619.562,2656.55,2655.4,0.0134738,0.0134156
1389.0,0.00109538,619.727,2660.84,2659.69,0.00109538,0.00103716
1392.0,0.00646112,619.892,2665.14,2663.98,0.00646112,0.0064029
1395.0,0.01065,620.057,2669.43,2668.27,0.01065,0.0105918
1398.0,0.00235752,620.222,2673.72,2672.55,0.00248258,0.00242436
1401.0,0.00225622,620.387,2678.01,2676.84,0.00248258,0.00242436
1404.0,0.0033613,620.551,2682.29,2681.12,0.0033613,0.00330308
1407.0,0.0032048,620.716,2686.58,2685.39,0.00297966,0.00292144
1410.0,0.00684639,620.881,2690.86,2689.67,0.00684639,0.00678817
1413.0,0.0112995,621.046,2695.14,2693.94,0.0112132,0.011155
1416.0,0.000961385,621.211,2699.41,2698.21,0.00194883,0.00189061
1419.0,0.0173461,621.376,2703.69,2702.48,0.0173461,0.0172879
1422.0,0.00478511,621.541,2707.96,2706.75,0.00859152,0.0085333
1425.0,0.00218752,621.706,2712.23,2711.01,0.00785726,0.00779904
1428.0,0.0155477,621.871,2716.5,2715.27,0.0116813,0.0116231
1431.0,0.00533937,622.036,2720.76,2719.53,0.00533937,0.00528115
1434.0,0.00511172,622.201,2725.03,2723.79,0.00511172,0.0050535
1437.0,0.00857826,622.366,2729.29,2728.05,0.00622886,0.00617064
1440.0,0.00278838,622.531,2733.54,2732.3,0.00437606,0.00431783
1443.0,0.00737104,622.696,2737.8,2736.55,0.00907963,0.0090214
1446.0,0.0106215,622.861,2742.05,2740.8,0.0113469,0.0112887
1449.0,0.0139963,623.026,2746.31,2745.04,0.0113469,0.0112887
1452.0,0.0110637,623.191,2750.56,2749.29,0.00983925,0.00978102
1455.0,0.00320387,623.356,2754.8,2753.53,0.0035711,0.00351287
1458.0,0.0,623.521,2759.05,2757.77,0.0,-5.82291e-05
1461.0,0.0,623.686,2763.29,2762.01,0.0,-5.82301e-05
1464.0,0.000556954,623.851,2767.53,2766.24,0.000556954,0.000498722
1467.0,0.00533539,624.016,2771.77,2770.47,0.00533539,0.00527716
1470.0,0.0061501,624.181,2776,2774.7,0.00684012,0.00678189
1473.0,0.0267569,624.346,2780.24,2778.93,0.0159132,0.015855
1476.0,0.0,624.511,2784.47,2783.16,0.00877515,0.00871691
1479.0,0.0183879,624.676,2788.7,2787.38,0.00349432,0.00343608
1482.0,0.0,624.841,2792.93,2791.6,0.0032005,0.00314226
1485.0,0.0169889,625.006,2797.15,2795.82,0.0126531,0.0125949
1488.0,0.0151845,625.171,2801.37,2800.04,0.0133904,0.0133322
1491.0,0.000162882,625.336,2805.59,2804.25,0.00692229,0.00686404
1494.0,0.00990132,625.501,2809.81,2808.47,0.00692229,0.00686404
1497.0,0.00736999,625.666,2814.03,2812.68,0.00488641,0.00482816
1500.0,0.00333022,625.831,2818.24,2816.89,0.00335885,0.0033006
1503.0,0.00823449,625.996,2822.45,2821.09,0.00793517,0.00787692
1506.0,0.0114093,626.161,2826.66,2825.3,0.00693843,0.00688017
1509.0,0.000175479,626.326,2830.87,2829.5,0.00308853,0.00303027
1512.0,0.0094883,626.491,2835.07,2833.7,0.00375278,0.00369452
1515.0,0.00502312,626.656,2839.27,2837.89,0.00146083,0.00140257
1518.0,0.00131784,626.821,2843.48,2842.09,0.00187234,0.00181408
1521.0,0.0,626.986,2847.67,2846.28,0.00187234,0.00181408
1524.0,0.0103429,627.151,2851.87,2850.47,0.00648604,0.00642778
1527.0,0.00226422,627.316,2856.06,2854.66,0.00762236,0.00756409
1530.0,0.0190121,627.481,2860.25,2858.85,0.0132233,0.013165
1533.0,0.00895747,627.646,2864.44,2863.03,0.00878855,0.00873028
1536.0,0.0,627.811,2868.63,2867.21,0.00755233,0.00749406
1539.0,0.0144039,627.976,2872.82,2871.39,0.00755233,0.00749406
1542.0,0.00919438,628.141,2877,2875.57,0.00919438,0.00913611
1545.0,0.0155484,628.306,2881.18,2879.74,0.0114159,0.0113576
1548.0,0.0056226,628.471,2885.36,2883.92,0.0056226,0.00556433
1551.0,0.0,628.636,2889.53,2888.09,0.0,-5.82749e-05
1554.0,0.00716897,628.801,2893.71,2892.26,0.00716897,0.00711069
1557.0,0.0,628.966,2897.88,2896.42,0.00875394,0.00869566
1560.0,0.00342447,629.131,2902.05,2900.59,0.00862795,0.00856967
1563.0,0.0134651,629.296,2906.21,2904.75,0.0112765,0.0112182
1566.0,0.00252848,629.461,2910.38,2908.91,0.00633535,0.00627707
1569.0,0.00430615,629.626,2914.54,2913.06,0.00430615,0.00424786
1572.0,0.0052149,629.791,2918.7,2917.22,0.0052149,0.00515661
1575.0,0.0269921,629.956,2922.86,2921.37,0.015974,0.0159157
1578.0,0.00449847,630.121,2927.02,2925.52,0.00449847,0.00444018
1581.0,0.00188449,630.286,2931.17,2929.67,0.00188449,0.0018262
1584.0,0.0120815,630.451,2935.32,2933.82,0.0100362,0.0099779
1587.0,0.0,630.616,2939.47,2937.96,0.000411994,0.000353695
1590.0,0.00198939,630.781,2943.62,2942.11,0.000916892,0.000858591
1593.0,0.00830545,630.946,2947.77,2946.25,0.00830545,0.00824715
1596.0,0.00281938,631.111,2951.91,2950.38,0.00972697,0.00966867
1599.0,0.0342073,631.276,2956.05,2954.52,0.0287249,0.0286666
1602.0,0.0352934,631.441,2960.19,2958.65,0.0352934,0.0352351
1605.0,0.0472321,631.606,2964.33,2962.79,0.0472321,0.0471738
1608.0,0.0618592,631.771,2968.46,2966.92,0.0581943,0.058136
1611.0,0.0582267,631.936,2972.6,2971.04,0.0581943,0.058136
1614.0,0.0503627,632.101,2976.73,2975.17,0.0503627,0.0503044
1617.0,0.0348087,632.266,2980.85,2979.29,0.0348087,0.0347504
1620.0,0.00970627,632.431,2984.98,2983.41,0.00970627,0.00964795
1623.0,0.0,632.596,2989.1,2987.53,0.0,-5.83199e-05
1626.0,0.00265507,632.761,2993.23,2991.65,0.00265507,0.00259675
1629.0,0.0,632.926,2997.35,2995.76,0.00505713,0.00499881
1632.0,0.0194065,633.091,3001.46,2999.87,0.0194065,0.0193482
1635.0,0.0280031,633.256,3005.58,3003.98,0.0280031,0.0279448
1638.0,0.0250388,633.421,3009.69,3008.09,0.0250388,0.0249805
1641.0,0.0148016,633.585,3013.8,3012.2,0.0146904,0.0146321
1644.0,0.00428541,633.75,3017.91,3016.3,0.00470808,0.00464975
1647.0,0.00988703,633.915,3022.02,3020.4,0.00470808,0.00464974
1650.0,0.0,634.08,3026.12,3024.5,0.00226596,0.00220762
1653.0,0.00738568,634.245,3030.23,3028.6,0.00552067,0.00546233
1656.0,0.00552181,634.41,3034.33,3032.69,0.00528989,0.00523155
1659.0,0.0,634.575,3038.42,3036.79,0.0,-5.8347e-05
1662.0,0.00190811,634.74,3042.52,3040.88,0.00190811,0.00184976
1665.0,0.00275509,634.905,3046.61,3044.97,0.00538804,0.00532969
1668.0,0.0,635.07,3050.71,3049.05,0.000442512,0.000384155
1671.0,0.00188122,635.235,3054.8,3053.14,0.000485362,0.000427002
1674.0,0.00471748,635.4,3058.88,3057.22,0.00412442,0.00406606
1677.0,0.0,635.565,3062.97,3061.3,0.000450141,0.000391778
1680.0,0.0142627,635.73,3067.05,3065.38,0.0142627,0.0142043
1683.0,0.0111803,635.895,3071.13,3069.45,0.0111803,0.0111219
1686.0,0.00221955,636.06,3075.21,3073.53,0.00221955,0.00216119
1689.0,0.0,636.225,3079.29,3077.6,0.0,-5.83646e-05
1692.0,0.00488162,636.39,3083.36,3081.67,0.00171557,0.0016572
1695.0,0.00636089,636.555,3087.44,3085.74,0.00636089,0.00630252
1698.0,0.00377161,636.72,3091.51,3089.8,0.00907247,0.0090141
1701.0,0.0146113,636.885,3095.58,3093.87,0.0129918,0.0129334
1704.0,0.00303691,637.05,3099.64,3097.93,0.00303691,0.00297854
1707.0,0.00466163,637.215,3103.71,3101.99,0.00466163,0.00460326
1710.0,0.0083519,637.38,3107.77,3106.04,0.0083519,0.00829353
1713.0,0.00201167,637.545,3111.83,3110.1,0.000122072,6.36984e-05
1716.0,0.00280685,637.71,3115.89,3114.15,0.00280685,0.00274847
1719.0,0.0181279,637.875,3119.94,3118.2,0.0162431,0.0161847
1722.0,0.0167777,638.04,3124,3122.25,0.0162431,0.0161847
1725.0,0.00864297,638.205,3128.05,3126.3,0.00864297,0.00858459
1728.0,0.00153353,638.37,3132.1,3130.34,0.00153353,0.00147515
1731.0,0.00803935,638.535,3136.15,3134.38,0.00701244,0.00695406
1734.0,0.0102174,638.7,3140.19,3138.42,0.0102174,0.010159
1737.0,0.0106233,638.865,3144.24,3142.46,0.0139304,0.013872
1740.0,0.00867357,639.03,3148.28,3146.5,0.00867357,0.00861518
1743.0,0.0105241,639.195,3152.32,3150.53,0.00634917,0.00629078
1746.0,0.0,639.36,3156.35,3154.56,0.00369628,0.00363789
1749.0,8.28646e-05,639.525,3160.39,3158.59,0.00369628,0.00363789
1752.0,0.00847114,639.69,3164.42,3162.62,0.00738094,0.00732254
1755.0,0.0100858,639.855,3168.45,3166.65,0.00746821,0.00740981
1758.0,0.00978537,640.02,3172.48,3170.67,0.00978537,0.00972697
1761.0,0.00660878,640.185,3176.51,3174.69,0.00660878,0.00655038
1764.0,0.00998305,640.35,3180.53,3178.71,0.00998305,0.00992465
1767.0,0.0120056,640.515,3184.55,3182.73,0.0120056,0.0119472
1770.0,0.00160945,640.68,3188.58,3186.74,0.00160945,0.00155104
1773.0,0.0,640.845,3192.59,3190.76,0.000404364,0.000345954
1776.0,0.000696829,641.01,3196.61,3194.77,0.000696829,0.000638417
1779.0,0.00458161,641.175,3200.62,3198.78,0.00458161,0.0045232
1782.0,0.000969672,641.34,3204.64,3202.78,0.000969672,0.000911257
1785.0,0.00157048,641.505,3208.65,3206.79,0.00157048,0.00151206
1788.0,0.00648908,641.67,3212.65,3210.79,0.00648908,0.00643066
1791.0,0.00458056,641.835,3216.66,3214.79,0.00159927,0.00154085
1794.0,0.0,642,3220.66,3218.79,0.00139414,0.00133572
1797.0,0.00336498,642.165,3224.67,3222.79,0.00139414,0.00133572
1800.0,0.00380166,642.33,3228.67,3226.78,0.00449664,0.00443821
1803.0,0.0081689,642.495,3232.66,3230.78,0.00685496,0.00679653
1806.0,0.00650439,642.66,3236.66,3234.77,0.00685496,0.00679653
1809.0,0.0125647,642.825,3240.65,3238.76,0.00860392,0.00854549
1812.0,0.0110474,642.99,3244.65,3242.74,0.0110474,0.010989
1815.0,0.00962401,643.155,3248.64,3246.73,0.00962401,0.00956557
1818.0,0.0,643.32,3252.62,3250.71,0.00222019,0.00216175
1821.0,0.00596811,643.485,3256.61,3254.69,0.00237659,0.00231815
1824.0,0.0,643.65,3260.59,3258.67,0.00211337,0.00205492
1827.0,0.0105718,643.815,3264.57,3262.64,0.00716721,0.00710876
1830.0,0.00250549,643.98,3268.55,3266.62,0.0027842,0.00272575
1833.0,0.0104293,644.145,3272.53,3270.59,0.00699328,0.00693483
1836.0,0.0,644.31,3276.51,3274.56,0.00164739,0.00158893
1839.0,0.00444986,644.475,3280.48,3278.53,0.00202419,0.00196573
1842.0,0.00995573,644.64,3284.45,3282.5,0.00269201,0.00263355
1845.0,0.00479992,644.805,3288.42,3286.46,0.00479992,0.00474146
1848.0,0.00280046,644.97,3292.39,3290.42,0.00377587,0.00371741
1851.0,0.00877018,645.135,3296.35,3294.38,0.00574497,0.00568651
1854.0,0.00143056,645.3,3300.31,3298.34,0.00240436,0.00234589
1857.0,0.00671987,645.465,3304.28,3302.3,0.00309758,0.00303911
1860.0,0.0,645.63,3308.23,3306.25,0.000670206,0.000611736
1863.0,0.00134973,645.795,3312.19,3310.2,0.0,-5.84719e-05
1866.0,0.00330027,645.96,3316.15,3314.15,0.00321497,0.0031565
1869.0,0.00692311,646.125,3320.1,3318.1,0.00321497,0.00315649
1872.0,0.00808882,646.29,3324.05,3322.05,0.00613003,0.00607155
1875.0,0.00493011,646.455,3328,3325.99,0.00523796,0.00517948
1878.0,0.00362356,646.619,3331.95,3329.93,0.00362356,0.00356507
1881.0,0.0,646.784,3335.89,3333.87,0.00294496,0.00288647
1884.0,0.00771845,646.949,3339.83,3337.81,0.00437411,0.00431562
1887.0,0.00151081,647.114,3343.78,3341.74,0.00501536,0.00495687
1890.0,0.00086557,647.279,3347.71,3345.68,0.00086557,0.000807073
1893.0,0.00030518,647.444,3351.65,3349.61,0.00030518,0.00024668
1896.0,0.000373687,647.609,3355.59,3353.54,0.00156027,0.00150177
1899.0,0.00370369,647.774,3359.52,3357.47,0.00260864,0.00255014
1902.0,0.00684618,647.939,3363.45,3361.39,0.00684618,0.00678767
1905.0,0.014808,648.104,3367.38,3365.32,0.0108817,0.0108232
1908.0,0.0017705,648.269,3371.31,3369.24,0.00476972,0.00471121
1911.0,0.0117337,648.434,3375.23,3373.16,0.0117337,0.0116752
1914.0,0.00826641,648.599,3379.15,3377.08,0.00826641,0.0082079
1917.0,0.000381476,648.764,3383.07,3380.99,0.00186586,0.00180735
1920.0,0.000594379,648.929,3386.99,3384.91,0.00120392,0.0011454
1923.0,0.000879535,649.094,3390.91,3388.82,0.00120392,0.0011454
1926.0,0.018697,649.259,3394.83,3392.73,0.0149753,0.0149168
1929.0,0.0119098,649.424,3398.74,3396.64,0.0119098,0.0118513
1932.0,0.0,649.589,3402.65,3400.54,0.00125267,0.00119415
1935.0,0.00584727,649.754,3406.56,3404.45,0.00431004,0.00425152
1938.0,0.0109088,649.919,3410.47,3408.35,0.0109088,0.0108503
1941.0,0.0095743,650.084,3414.37,3412.25,0.0095743,0.00951578
1944.0,0.00318477,650.249,3418.27,3416.15,0.00795291,0.00789438
1947.0,0.0100983,650.414,3422.17,3420.04,0.00820816,0.00814963
1950.0,0.00848499,650.579,3426.07,3423.94,0.00848499,0.00842646
1953.0,0.0092257,650.744,3429.97,3427.83,0.0128615,0.012803
1956.0,0.0129338,650.909,3433.87,3431.72,0.0128707,0.0128122
1959.0,0.000427253,651.074,3437.76,3435.61,0.000427253,0.000368718
1962.0,0.00828295,651.239,3441.65,3439.49,0.000949501,0.000890965
1965.0,0.00139055,651.404,3445.54,3443.38,0.000949501,0.000890964
1968.0,0.0,651.569,3449.43,3447.26,0.00334967,0.00329113
1971.0,0.0120415,651.734,3453.31,3451.14,0.00702266,0.00696412
1974.0,0.0095319,651.899,3457.2,3455.02,0.00518115,0.00512261
1977.0,0.00412766,652.064,3461.08,3458.89,0.00412766,0.00406912
1980.0,0.0,652.229,3464.96,3462.77,0.00153141,0.00147287
1983.0,0.00170383,652.394,3468.83,3466.64,0.00170383,0.00164529
1986.0,0.0130485,652.559,3472.71,3470.51,0.0101354,0.0100769
1989.0,0.00161923,652.724,3476.58,3474.38,0.00217582,0.00211727
1992.0,0.00170719,652.889,3480.45,3478.25,0.00557627,0.00551772
1995.0,0.0100843,653.054,3484.32,3482.11,0.00557627,0.00551772
1998.0,0.000404364,653.219,3488.19,3485.97,0.00118639,0.00112784
2001.0,0.00501697,653.384,3492.06,3489.83,0.00501697,0.00495842
2004.0,0.0,653.549,3495.92,3493.69,0.000663767,0.000605221
2007.0,6.12706e-05,653.714,3499.78,3497.55,0.000663767,0.000605222
2010.0,0.00645003,653.879,3503.64,3501.4,0.00502981,0.00497127
2013.0,0.00371535,654.044,3507.5,3505.26,0.00281631,0.00275777
2016.0,0.00160711,654.209,3511.36,3509.11,0.00160711,0.00154857
2019.0,0.00435372,654.374,3515.21,3512.96,0.0038816,0.00382306
2022.0,0.00452125,654.539,3519.06,3516.8,0.00574597,0.00568743
2025.0,0.00781207,654.704,3522.91,3520.65,0.00781207,0.00775353
2028.0,0.0103469,654.869,3526.76,3524.49,0.0114379,0.0113794
2031.0,0.00323523,655.034,3530.61,3528.33,0.00323523,0.00317669
2034.0,0.00541007,655.199,3534.45,3532.17,0.00311798,0.00305944
2037.0,0.0,655.364,3538.29,3536.01,0.00269322,0.00263468
2040.0,0.00687522,655.529,3542.13,3539.85,0.00269322,0.00263468
2043.0,0.00155949,655.694,3545.97,3543.68,0.00180042,0.00174188
2046.0,0.00320416,655.859,3549.81,3547.51,0.00156103,0.00150249
2047.0,0.0,655.914,3551.09,3548.79,0.0,-5.85393e-05