File: data/processed/processed_data/2024-09-03/2024-09-03_glycinepowder_n_y_y_solid_1000_0_5.csv
Pixels #,Intensity (a.u.),Wavelength (nm),Raman shift (cm-1),Raman shift (cm-1) adjusted,Filtered Intensity (a.u.),Baselined Filtered Intensity (a.u.)
0.0,0.00168904,543.337,392.223,393.994,0.000840488,0.000831579
3.0,0.00105765,543.502,397.81,399.573,0.00105765,0.00104874
6.0,0.000963041,543.667,403.394,405.15,0.00138236,0.00137345
9.0,0.00169563,543.832,408.974,410.723,0.00169563,0.00168672
12.0,0.00168875,543.997,414.551,416.293,0.00168875,0.00167984
15.0,0.000791425,544.162,420.125,421.859,0.000791425,0.000782516
18.0,0.00204479,544.327,425.695,427.422,0.00164944,0.00164053
21.0,4.26396e-05,544.492,431.261,432.981,0.00122644,0.00121753
24.0,0.00143705,544.657,436.825,438.537,0.00143705,0.00142814
27.0,0.00137854,544.822,442.385,444.09,0.00159612,0.00158721
30.0,0.00217763,544.987,447.941,449.64,0.00217763,0.00216872
33.0,0.00322559,545.152,453.494,455.186,0.00221644,0.00220753
36.0,0.000547417,545.317,459.044,460.728,0.000964179,0.00095527
39.0,0.000471977,545.482,464.591,466.268,0.000964179,0.00095527
42.0,0.00218658,545.647,470.134,471.804,0.000620239,0.00061133
45.0,0.0,545.812,475.674,477.337,0.000620239,0.00061133
48.0,0.000552454,545.977,481.21,482.866,0.00113139,0.00112248
51.0,0.00150771,546.142,486.743,488.392,0.00126726,0.00125835
54.0,0.0015178,546.307,492.273,493.915,0.0016711,0.00166219
57.0,0.00422839,546.472,497.8,499.434,0.00422839,0.00421948
60.0,0.0104536,546.637,503.323,504.95,0.00872995,0.00872104
63.0,0.0109004,546.802,508.843,510.463,0.0109004,0.0108915
66.0,0.0111937,546.967,514.359,515.972,0.0121496,0.0121407
69.0,0.0131275,547.132,519.872,521.478,0.012915,0.0129061
72.0,0.0132623,547.297,525.382,526.981,0.0132623,0.0132534
75.0,0.0141713,547.462,530.888,532.48,0.0141713,0.0141624
78.0,0.0186173,547.627,536.392,537.976,0.0186173,0.0186084
81.0,0.0206051,547.792,541.891,543.469,0.0201459,0.020137
84.0,0.0203012,547.957,547.388,548.958,0.020296,0.0202871
87.0,0.0177904,548.122,552.881,554.444,0.0177904,0.0177815
90.0,0.0157713,548.287,558.371,559.927,0.0157131,0.0157042
93.0,0.0136625,548.452,563.858,565.407,0.0136625,0.0136536
96.0,0.0100571,548.617,569.341,570.883,0.0100571,0.0100482
99.0,0.00854042,548.782,574.821,576.356,0.0083055,0.00829659
102.0,0.0037582,548.947,580.298,581.826,0.0037582,0.00374929
105.0,0.00546737,549.112,585.771,587.292,0.00469696,0.00468805
108.0,0.00188469,549.277,591.241,592.755,0.00257731,0.0025684
111.0,0.00344461,549.442,596.708,598.215,0.00232033,0.00231142
114.0,0.00127089,549.607,602.172,603.671,0.00201524,0.00200633
117.0,0.00299676,549.772,607.632,609.125,0.00316503,0.00315612
120.0,0.0064797,549.937,613.089,614.575,0.00351412,0.00350521
123.0,0.000559563,550.102,618.543,620.021,0.00242553,0.00241662
126.0,0.00404263,550.267,623.993,625.465,0.00242553,0.00241662
129.0,0.00283607,550.432,629.44,630.905,0.00267927,0.00267036
132.0,0.0,550.597,634.884,636.342,0.000715249,0.000706338
135.0,0.000894322,550.762,640.325,641.776,0.000742447,0.000733536
138.0,0.00315883,550.927,645.762,647.206,0.00202649,0.00201758
141.0,0.00111304,551.092,651.197,652.633,0.00202649,0.00201758
144.0,0.0,551.257,656.627,658.057,0.00158396,0.00157505
147.0,0.00120641,551.422,662.055,663.478,0.00330361,0.0032947
150.0,0.00730364,551.587,667.48,668.895,0.00402039,0.00401148
153.0,0.00165886,551.752,672.901,674.309,0.00233182,0.00232291
156.0,0.00184663,551.917,678.319,679.72,0.00233182,0.00232291
159.0,0.00371943,552.082,683.733,685.128,0.00300889,0.00299998
162.0,0.00380313,552.247,689.145,690.533,0.00402693,0.00401802
165.0,0.00415586,552.412,694.553,695.934,0.0044029,0.00439399
168.0,0.00510945,552.577,699.958,701.332,0.00477603,0.00476712
171.0,0.00671094,552.742,705.36,706.727,0.00566051,0.0056516
174.0,0.00780854,552.907,710.758,712.118,0.00780854,0.00779963
177.0,0.00664267,553.072,716.154,717.507,0.00664267,0.00663376
180.0,0.00743654,553.237,721.546,722.892,0.00644354,0.00643463
183.0,0.00787,553.402,726.935,728.274,0.00787,0.00786109
186.0,0.0117438,553.567,732.32,733.652,0.0117667,0.0117578
189.0,0.0129994,553.732,737.703,739.028,0.0125061,0.0124972
192.0,0.0171003,553.897,743.082,744.4,0.0158303,0.0158214
195.0,0.0146031,554.062,748.458,749.769,0.0159066,0.0158977
198.0,0.017941,554.227,753.831,755.135,0.0169925,0.0169836
201.0,0.0150013,554.392,759.201,760.498,0.0165417,0.0165328
204.0,0.0199108,554.557,764.567,765.858,0.0199108,0.0199019
207.0,0.0278655,554.722,769.93,771.214,0.0251371,0.0251282
210.0,0.0285111,554.887,775.29,776.567,0.0285111,0.0285022
213.0,0.03023,555.052,780.647,781.917,0.030817,0.0308081
216.0,0.0372011,555.217,786.001,787.264,0.0354239,0.035415
219.0,0.0366954,555.382,791.352,792.608,0.0366954,0.0366865
222.0,0.0473323,555.546,796.699,797.948,0.0473323,0.0473234
225.0,0.0532183,555.711,802.043,803.285,0.0515221,0.0515132
228.0,0.0543132,555.876,807.384,808.62,0.0550241,0.0550152
231.0,0.0629746,556.041,812.722,813.951,0.0629746,0.0629657
234.0,0.0709239,556.206,818.057,819.278,0.0709239,0.070915
237.0,0.0786557,556.371,823.388,824.603,0.0786557,0.0786468
240.0,0.0817435,556.536,828.716,829.924,0.0819994,0.0819905
243.0,0.0916272,556.701,834.042,835.243,0.0900319,0.090023
246.0,0.0922616,556.866,839.364,840.558,0.0922616,0.0922527
249.0,0.0950966,557.031,844.682,845.87,0.0965084,0.0964995
252.0,0.0944089,557.196,849.998,851.179,0.0944089,0.0944
255.0,0.0905031,557.361,855.311,856.485,0.089652,0.0896431
258.0,0.0827406,557.526,860.62,861.787,0.0832764,0.0832675
261.0,0.0818055,557.691,865.927,867.087,0.0806814,0.0806725
264.0,0.0754555,557.856,871.23,872.383,0.0785519,0.078543
267.0,0.0833369,558.021,876.53,877.676,0.0838295,0.0838206
270.0,0.0920179,558.186,881.827,882.966,0.0925492,0.0925403
273.0,0.103962,558.351,887.12,888.253,0.100392,0.100383
276.0,0.0876546,558.516,892.411,893.537,0.0876546,0.0876457
279.0,0.0712346,558.681,897.698,898.818,0.0712346,0.0712257
282.0,0.0385831,558.846,902.983,904.095,0.0385831,0.0385742
285.0,0.0266508,559.011,908.264,909.37,0.0247871,0.0247782
288.0,0.0192376,559.176,913.542,914.641,0.0192376,0.0192287
291.0,0.0212242,559.341,918.817,919.909,0.018106,0.0180971
294.0,0.00895873,559.506,924.089,925.174,0.00895873,0.00894983
297.0,0.00935159,559.671,929.358,930.436,0.00935159,0.00934269
300.0,0.0127154,559.836,934.624,935.695,0.0102978,0.0102889
303.0,0.00259511,560.001,939.886,940.951,0.0043294,0.0043205
306.0,0.0054674,560.166,945.146,946.204,0.0054674,0.0054585
309.0,0.00348469,560.331,950.402,951.454,0.00565078,0.00564188
312.0,0.00850936,560.496,955.656,956.7,0.0052464,0.0052375
315.0,0.00243585,560.661,960.906,961.944,0.00374125,0.00373235
318.0,0.00331622,560.826,966.153,967.184,0.00409555,0.00408665
321.0,0.00854262,560.991,971.397,972.421,0.00642823,0.00641933
324.0,0.0,561.156,976.638,977.655,0.000980392,0.000971492
327.0,0.00906771,561.321,981.876,982.887,0.00906771,0.00905881
330.0,0.008047,561.486,987.111,988.115,0.008047,0.0080381
333.0,0.00263409,561.651,992.342,993.34,0.00335079,0.00334189
336.0,0.00784287,561.816,997.571,998.562,0.00775445,0.00774555
339.0,0.00680334,561.981,1002.8,1003.78,0.00680334,0.00679444
342.0,0.00498874,562.146,1008.02,1009,0.00541594,0.00540704
345.0,0.00678037,562.311,1013.24,1014.21,0.00814866,0.00813976
348.0,0.00454354,562.476,1018.45,1019.42,0.00814866,0.00813976
351.0,0.0187186,562.641,1023.67,1024.63,0.0187186,0.0187097
354.0,0.0264994,562.806,1028.88,1029.83,0.0264994,0.0264905
357.0,0.0231682,562.971,1034.09,1035.03,0.0231682,0.0231593
360.0,0.0196853,563.136,1039.29,1040.23,0.0196853,0.0196764
363.0,0.015508,563.301,1044.49,1045.42,0.015563,0.0155541
366.0,0.0155176,563.466,1049.69,1050.61,0.0149323,0.0149234
369.0,0.00767622,563.631,1054.88,1055.8,0.00767622,0.00766732
372.0,0.00591622,563.796,1060.08,1060.99,0.00591622,0.00590732
375.0,0.00682811,563.961,1065.27,1066.17,0.00682811,0.00681921
378.0,0.011317,564.126,1070.45,1071.35,0.0102819,0.010273
381.0,0.00979029,564.291,1075.63,1076.52,0.0102819,0.010273
384.0,0.00499893,564.456,1080.81,1081.7,0.00499893,0.00499003
387.0,0.0065886,564.621,1085.99,1086.87,0.00476622,0.00475732
390.0,0.00392051,564.786,1091.16,1092.03,0.00476622,0.00475732
393.0,0.00294176,564.951,1096.34,1097.2,0.00703178,0.00702288
396.0,0.00920214,565.116,1101.5,1102.36,0.00796553,0.00795663
399.0,0.00915167,565.281,1106.67,1107.52,0.00848854,0.00847964
402.0,0.00266043,565.446,1111.83,1112.67,0.00692324,0.00691434
405.0,0.00814051,565.611,1116.99,1117.82,0.00495519,0.00494629
408.0,0.00286195,565.776,1122.14,1122.97,0.00484548,0.00483658
411.0,0.00844256,565.941,1127.3,1128.12,0.00844256,0.00843366
414.0,0.0144417,566.106,1132.45,1133.26,0.0097075,0.0096986
417.0,0.0031643,566.271,1137.59,1138.4,0.00666346,0.00665456
420.0,0.0086921,566.436,1142.74,1143.54,0.00666346,0.00665456
423.0,0.00253986,566.601,1147.88,1148.67,0.00253986,0.00253096
426.0,0.00149157,566.766,1153.02,1153.81,0.00149157,0.00148267
429.0,0.00249092,566.931,1158.15,1158.93,0.00522334,0.00521444
432.0,0.011409,567.096,1163.28,1164.06,0.00613523,0.00612633
435.0,0.00776981,567.261,1168.41,1169.18,0.0103937,0.0103848
438.0,0.00137329,567.426,1173.54,1174.3,0.00137329,0.00136439
441.0,0.0026529,567.591,1178.66,1179.42,0.0026529,0.002644
444.0,0.00630975,567.756,1183.78,1184.53,0.00809865,0.00808975
447.0,0.0175894,567.921,1188.9,1189.64,0.0130098,0.0130009
450.0,0.00275524,568.086,1194.01,1194.75,0.0103963,0.0103874
453.0,0.0132091,568.251,1199.12,1199.85,0.0103963,0.0103874
456.0,0.00972957,568.416,1204.23,1204.95,0.0114107,0.0114018
459.0,0.0108921,568.58,1209.33,1210.05,0.0126715,0.0126626
462.0,0.0197681,568.745,1214.44,1215.15,0.0186414,0.0186325
465.0,0.00838957,568.91,1219.53,1220.24,0.00838957,0.00838068
468.0,0.00958892,569.075,1224.63,1225.33,0.00958892,0.00958003
471.0,0.00873167,569.24,1229.72,1230.42,0.00903071,0.00902182
474.0,0.0,569.405,1234.81,1235.5,0.00385386,0.00384497
477.0,0.00779418,569.57,1239.9,1240.58,0.00779418,0.00778529
480.0,0.00850402,569.735,1244.99,1245.66,0.00850402,0.00849513
483.0,0.00939723,569.9,1250.07,1250.73,0.00939723,0.00938834
486.0,0.0132518,570.065,1255.14,1255.8,0.0125161,0.0125072
489.0,0.00272483,570.23,1260.22,1260.87,0.00593705,0.00592816
492.0,0.00610667,570.395,1265.29,1265.94,0.00593705,0.00592816
495.0,0.00269364,570.56,1270.36,1271,0.00269364,0.00268475
498.0,0.00244621,570.725,1275.43,1276.06,0.000972922,0.000964027
501.0,0.00402226,570.89,1280.49,1281.12,0.00328815,0.00327926
504.0,0.0072986,571.055,1285.55,1286.17,0.0072986,0.00728971
507.0,0.00776447,571.22,1290.61,1291.22,0.00776447,0.00775558
510.0,0.0,571.385,1295.67,1296.27,0.00230681,0.00229791
513.0,0.00775556,571.55,1300.72,1301.32,0.00724931,0.00724041
516.0,0.0112603,571.715,1305.77,1306.36,0.0138686,0.0138597
519.0,0.0296179,571.88,1310.81,1311.4,0.0296179,0.029609
522.0,0.0508071,572.045,1315.86,1316.44,0.0508071,0.0507982
525.0,0.0685125,572.21,1320.9,1321.47,0.0667534,0.0667445
528.0,0.0610168,572.375,1325.94,1326.5,0.0610168,0.0610079
531.0,0.0334579,572.54,1330.97,1331.53,0.0334579,0.033449
534.0,0.0125145,572.705,1336,1336.56,0.0125145,0.0125056
537.0,0.0,572.87,1341.03,1341.58,0.000205533,0.000196637
540.0,0.00050164,573.035,1346.06,1346.6,0.00109913,0.00109023
543.0,0.00862101,573.2,1351.08,1351.61,0.00577446,0.00576556
546.0,0.00268882,573.365,1356.1,1356.63,0.000716365,0.000707469
549.0,0.0,573.53,1361.12,1361.64,0.000607023,0.000598127
552.0,0.0125933,573.695,1366.13,1366.65,0.00669266,0.00668376
555.0,0.00657806,573.86,1371.14,1371.65,0.00545617,0.00544727
558.0,0.00785022,574.025,1376.15,1376.65,0.00545617,0.00544727
561.0,0.0,574.19,1381.16,1381.65,0.00306216,0.00305326
564.0,0.00965391,574.355,1386.16,1386.65,0.00965391,0.00964501
567.0,0.0145112,574.52,1391.16,1391.64,0.0111767,0.0111678
570.0,0.0108863,574.685,1396.16,1396.63,0.0111767,0.0111678
573.0,0.0215236,574.85,1401.15,1401.62,0.0215236,0.0215147
576.0,0.0295671,575.015,1406.14,1406.61,0.027724,0.0277151
579.0,0.0208277,575.18,1411.13,1411.59,0.0208277,0.0208188
582.0,0.00574073,575.345,1416.12,1416.57,0.00784964,0.00784074
585.0,0.00494523,575.51,1421.1,1421.54,0.00494523,0.00493633
588.0,0.00148504,575.675,1426.08,1426.52,0.00103998,0.00103108
591.0,0.00201009,575.84,1431.06,1431.49,0.0014589,0.00145
594.0,0.00288418,576.005,1436.03,1436.46,0.00308029,0.00307139
597.0,0.0102586,576.17,1441,1441.42,0.0092603,0.0092514
600.0,0.0108412,576.335,1445.97,1446.38,0.0108412,0.0108323
603.0,0.0179434,576.5,1450.94,1451.34,0.0159732,0.0159643
606.0,0.0149177,576.665,1455.9,1456.3,0.0149177,0.0149088
609.0,0.000875164,576.83,1460.86,1461.25,0.00144436,0.00143546
612.0,0.0,576.995,1465.82,1466.2,0.000904097,0.000895201
615.0,0.00614368,577.16,1470.77,1471.15,0.00350628,0.00349738
618.0,0.00458948,577.325,1475.72,1476.1,0.00458948,0.00458058
621.0,0.00182745,577.49,1480.67,1481.04,0.00186072,0.00185182
624.0,0.00535701,577.655,1485.62,1485.98,0.00489733,0.00488843
627.0,0.00281957,577.82,1490.56,1490.91,0.00489733,0.00488843
630.0,0.00866602,577.985,1495.5,1495.85,0.00492135,0.00491245
633.0,0.00265713,578.15,1500.44,1500.78,0.00312422,0.00311532
636.0,0.00546351,578.315,1505.37,1505.71,0.00546351,0.00545461
639.0,0.00975645,578.48,1510.3,1510.63,0.0112089,0.0112
642.0,0.00846472,578.645,1515.23,1515.55,0.0110416,0.0110327
645.0,0.0112306,578.81,1520.16,1520.47,0.00964226,0.00963336
648.0,0.0055654,578.975,1525.08,1525.39,0.0055654,0.0055565
651.0,0.0,579.14,1530,1530.31,6.18478e-05,5.29505e-05
654.0,0.00462976,579.305,1534.92,1535.22,0.00462976,0.00462086
657.0,0.00907135,579.47,1539.83,1540.13,0.00691316,0.00690426
660.0,1.18095e-05,579.635,1544.75,1545.03,0.00389504,0.00388614
663.0,0.000867193,579.8,1549.65,1549.93,0.00184879,0.00183989
666.0,0.0115198,579.965,1554.56,1554.83,0.0115198,0.0115109
669.0,0.0158137,580.13,1559.47,1559.73,0.0135073,0.0134984
672.0,0.00617437,580.295,1564.37,1564.63,0.00867997,0.00867107
675.0,0.0159635,580.46,1569.26,1569.52,0.00940328,0.00939438
678.0,0.00594725,580.625,1574.16,1574.41,0.00594725,0.00593835
681.0,0.00162669,580.79,1579.05,1579.29,0.003798,0.0037891
684.0,0.00709097,580.955,1583.94,1584.18,0.00237623,0.00236733
687.0,0.00300439,581.12,1588.83,1589.06,0.00234801,0.00233911
690.0,0.000637064,581.285,1593.71,1593.94,0.00177323,0.00176433
693.0,0.00741782,581.45,1598.59,1598.81,0.0053286,0.0053197
696.0,0.00162127,581.614,1603.47,1603.68,0.00162127,0.00161237
699.0,0.00938423,581.779,1608.35,1608.55,0.00592538,0.00591648
702.0,0.00170907,581.944,1613.22,1613.42,0.00563661,0.00562771
705.0,0.00359528,582.109,1618.09,1618.28,0.00359528,0.00358638
708.0,0.00800544,582.274,1622.96,1623.15,0.00727882,0.00726992
711.0,0.0130106,582.439,1627.83,1628,0.0096104,0.0096015
714.0,0.00603428,582.604,1632.69,1632.86,0.0109805,0.0109716
717.0,0.0116806,582.769,1637.55,1637.71,0.0109805,0.0109716
720.0,0.0,582.934,1642.4,1642.56,0.00417583,0.00416693
723.0,0.00690959,583.099,1647.26,1647.41,0.00417583,0.00416693
726.0,0.000494011,583.264,1652.11,1652.26,0.00326946,0.00326056
729.0,0.0175081,583.429,1656.96,1657.1,0.00811185,0.00810295
732.0,0.00602824,583.594,1661.8,1661.94,0.00769269,0.00768379
735.0,0.014405,583.759,1666.65,1666.77,0.014405,0.0143961
738.0,0.00978399,583.924,1671.49,1671.61,0.00978399,0.00977509
741.0,0.00874843,584.089,1676.32,1676.44,0.00479707,0.00478817
744.0,0.000244144,584.254,1681.16,1681.27,0.00479707,0.00478817
747.0,0.00898366,584.419,1685.99,1686.09,0.00941763,0.00940873
750.0,0.0106803,584.584,1690.82,1690.92,0.00942324,0.00941434
753.0,0.00148779,584.749,1695.65,1695.74,0.00148779,0.00147889
756.0,0.00373342,584.914,1700.47,1700.55,0.00373342,0.00372452
759.0,0.0071874,585.079,1705.29,1705.37,0.0071874,0.0071785
762.0,0.0087087,585.244,1710.11,1710.18,0.0087087,0.0086998
765.0,0.00141527,585.409,1714.92,1714.99,0.00394374,0.00393484
768.0,0.00652944,585.574,1719.74,1719.8,0.00652944,0.00652054
771.0,0.00848427,585.739,1724.55,1724.6,0.00762481,0.00761591
774.0,0.00987002,585.904,1729.35,1729.4,0.00896176,0.00895286
777.0,0.0033656,586.069,1734.16,1734.2,0.00477663,0.00476773
780.0,0.00546999,586.234,1738.96,1739,0.00546999,0.00546109
783.0,0.00450342,586.399,1743.76,1743.79,0.00450342,0.00449452
786.0,0.00373811,586.564,1748.56,1748.58,0.00370478,0.00369588
789.0,0.00763165,586.729,1753.35,1753.37,0.00579001,0.00578111
792.0,0.00200953,586.894,1758.14,1758.15,0.00252029,0.0025114
795.0,0.00338176,587.059,1762.93,1762.94,0.00252029,0.0025114
798.0,0.0,587.224,1767.72,1767.72,0.000432975,0.000424081
801.0,0.00262142,587.389,1772.5,1772.49,0.00242724,0.00241835
804.0,0.00244354,587.554,1777.28,1777.27,0.00242724,0.00241835
807.0,0.00260049,587.719,1782.06,1782.04,0.00218776,0.00217887
810.0,0.00122549,587.884,1786.83,1786.81,0.00218776,0.00217887
813.0,0.00641072,588.049,1791.61,1791.57,0.00599806,0.00598917
816.0,0.00692376,588.214,1796.38,1796.34,0.00435012,0.00434123
819.0,0.0107478,588.379,1801.14,1801.1,0.00721173,0.00720284
822.0,0.00420528,588.544,1805.91,1805.86,0.0035848,0.00357591
825.0,0.00369674,588.709,1810.67,1810.61,0.0035848,0.00357591
828.0,0.00270065,588.874,1815.43,1815.37,0.00409091,0.00408202
831.0,0.00686287,589.039,1820.19,1820.12,0.00686287,0.00685398
834.0,0.00386565,589.204,1824.94,1824.86,0.00122489,0.001216
837.0,0.0,589.369,1829.69,1829.61,0.000366217,0.000357331
840.0,0.00110914,589.534,1834.44,1834.35,0.00110914,0.00110026
843.0,0.00829261,589.699,1839.18,1839.09,0.00758119,0.00757231
846.0,0.0176052,589.864,1843.93,1843.83,0.012972,0.0129631
849.0,0.00181278,590.029,1848.67,1848.56,0.00593014,0.00592126
852.0,0.00958193,590.194,1853.41,1853.29,0.00521864,0.00520976
855.0,0.0,590.359,1858.14,1858.02,0.00521864,0.00520976
858.0,0.0139348,590.524,1862.87,1862.75,0.0071373,0.00712842
861.0,0.00722092,590.689,1867.6,1867.47,0.00722092,0.00721204
864.0,0.00729543,590.854,1872.33,1872.2,0.00825167,0.00824279
867.0,0.00541614,591.019,1877.06,1876.91,0.00541614,0.00540726
870.0,0.0114332,591.184,1881.78,1881.63,0.0114332,0.0114243
873.0,0.0120921,591.349,1886.5,1886.34,0.0120921,0.0120832
876.0,0.0,591.514,1891.21,1891.05,0.000641833,0.000632961
879.0,0.0,591.679,1895.93,1895.76,0.00209144,0.00208257
882.0,0.0133837,591.844,1900.64,1900.47,0.0133837,0.0133748
885.0,0.0113514,592.009,1905.35,1905.17,0.0124489,0.01244
888.0,0.00862616,592.174,1910.05,1909.87,0.010063,0.0100541
891.0,0.00503949,592.339,1914.76,1914.57,0.00503949,0.00503062
894.0,0.00355497,592.504,1919.46,1919.26,0.00355497,0.0035461
897.0,0.00719543,592.669,1924.16,1923.96,0.00719543,0.00718657
900.0,0.0069179,592.834,1928.85,1928.64,0.0069179,0.00690904
903.0,0.00456138,592.999,1933.55,1933.33,0.00565203,0.00564317
906.0,0.00890046,593.164,1938.24,1938.02,0.00602391,0.00601505
909.0,0.0,593.329,1942.93,1942.7,0.0,-8.85999e-06
912.0,0.00213436,593.494,1947.61,1947.38,0.00213436,0.0021255
915.0,0.00505247,593.659,1952.29,1952.05,0.005434,0.00542514
918.0,0.00509113,593.824,1956.97,1956.73,0.00594922,0.00594036
921.0,0.00510893,593.989,1961.65,1961.4,0.00192405,0.00191519
924.0,0.00110515,594.154,1966.33,1966.07,0.00110515,0.00109629
927.0,0.0,594.319,1971,1970.73,0.00262065,0.0026118
930.0,0.00628057,594.484,1975.67,1975.4,0.00461545,0.0046066
933.0,0.00574099,594.648,1980.33,1980.06,0.00574099,0.00573214
936.0,0.00944838,594.813,1985,1984.72,0.00706868,0.00705983
939.0,0.0109087,594.978,1989.66,1989.37,0.00771044,0.00770159
942.0,0.0036366,595.143,1994.32,1994.03,0.0036366,0.00362775
945.0,0.0,595.308,1998.98,1998.68,0.00147059,0.00146174
948.0,0.00658102,595.473,2003.63,2003.33,0.00340152,0.00339267
951.0,0.00154946,595.638,2008.28,2007.97,0.00340152,0.00339267
954.0,0.00595055,595.803,2012.93,2012.62,0.00478835,0.0047795
957.0,0.0,595.968,2017.58,2017.26,0.00188138,0.00187253
960.0,0.00141705,596.133,2022.22,2021.89,0.00188138,0.00187254
963.0,0.012757,596.298,2026.86,2026.53,0.00528065,0.00527181
966.0,0.0,596.463,2031.5,2031.16,0.00477038,0.00476154
969.0,0.00640003,596.628,2036.14,2035.79,0.00194423,0.00193539
972.0,0.00367491,596.793,2040.77,2040.42,0.00367491,0.00366607
975.0,0.00421439,596.958,2045.4,2045.05,0.00557476,0.00556592
978.0,0.0,597.123,2050.03,2049.67,0.00114172,0.00113288
981.0,0.00485936,597.288,2054.66,2054.29,0.00155932,0.00155048
984.0,0.00453549,597.453,2059.28,2058.91,0.00453549,0.00452665
987.0,0.00627932,597.618,2063.9,2063.52,0.00627932,0.00627048
990.0,0.00506773,597.783,2068.52,2068.13,0.00550479,0.00549595
993.0,0.00535668,597.948,2073.14,2072.74,0.00535668,0.00534784
996.0,0.00495888,598.113,2077.75,2077.35,0.00502927,0.00502043
999.0,0.00160768,598.278,2082.36,2081.95,0.00387788,0.00386905
1002.0,0.00621057,598.443,2086.97,2086.56,0.00387788,0.00386905
1005.0,0.0,598.608,2091.57,2091.16,0.00120737,0.00119854
1008.0,0.00454832,598.773,2096.18,2095.75,0.00587751,0.00586868
1011.0,0.0091174,598.938,2100.78,2100.35,0.0072503,0.00724147
1014.0,0.00416214,599.103,2105.38,2104.94,0.00563319,0.00562436
1017.0,0.00158778,599.268,2109.97,2109.53,0.00523876,0.00522993
1020.0,0.00731154,599.433,2114.56,2114.12,0.00523876,0.00522993
1023.0,0.00503468,599.598,2119.15,2118.7,0.0034556,0.00344677
1026.0,0.0,599.763,2123.74,2123.28,0.00134254,0.00133371
1029.0,0.00497708,599.928,2128.33,2127.86,0.00497708,0.00496825
1032.0,0.00218327,600.093,2132.91,2132.44,0.00218327,0.00217444
1035.0,0.00316049,600.258,2137.49,2137.01,0.000841398,0.000832571
1038.0,0.000303273,600.423,2142.07,2141.59,0.000841398,0.000832571
1041.0,0.00758637,600.588,2146.64,2146.15,0.00646134,0.00645251
1044.0,0.00292011,600.753,2151.22,2150.72,0.00372629,0.00371746
1047.0,0.000801229,600.918,2155.79,2155.29,0.00167579,0.00166697
1050.0,0.0,601.083,2160.35,2159.85,0.0,-8.8243e-06
1053.0,0.00196105,601.248,2164.92,2164.41,0.00196105,0.00195223
1056.0,0.00222802,601.413,2169.48,2168.96,0.00352986,0.00352104
1059.0,0.00387166,601.578,2174.04,2173.52,0.00365694,0.00364812
1062.0,0.000372076,601.743,2178.6,2178.07,0.0017586,0.00174978
1065.0,0.00424036,601.908,2183.16,2182.62,0.00424036,0.00423154
1068.0,0.00187304,602.073,2187.71,2187.17,0.00285272,0.0028439
1071.0,0.00810298,602.238,2192.26,2191.71,0.00825611,0.00824729
1074.0,0.00577038,602.403,2196.81,2196.25,0.00577038,0.00576156
1077.0,0.00281182,602.568,2201.35,2200.79,0.00281182,0.002803
1080.0,0.00538926,602.733,2205.89,2205.33,0.00243398,0.00242516
1083.0,0.0,602.898,2210.43,2209.86,0.00145844,0.00144962
1086.0,0.00899586,603.063,2214.97,2214.4,0.00663003,0.00662121
1089.0,0.00456254,603.228,2219.51,2218.92,0.00456254,0.00455372
1092.0,0.00568357,603.393,2224.04,2223.45,0.00568357,0.00567475
1095.0,0.00710495,603.558,2228.57,2227.98,0.00883195,0.00882313
1098.0,0.00804247,603.723,2233.1,2232.5,0.00566764,0.00565882
1101.0,0.0,603.888,2237.62,2237.02,0.000461593,0.000452776
1104.0,0.00276379,604.053,2242.15,2241.54,0.000867857,0.00085904
1107.0,0.00476432,604.218,2246.67,2246.05,0.00476432,0.0047555
1110.0,0.00249674,604.383,2251.19,2250.56,0.00249674,0.00248792
1113.0,0.00805988,604.548,2255.7,2255.07,0.00695616,0.00694734
1116.0,0.00472449,604.713,2260.21,2259.58,0.00650555,0.00649673
1119.0,0.00325488,604.878,2264.72,2264.08,0.00531836,0.00530954
1122.0,0.00209368,605.043,2269.23,2268.59,0.00121092,0.0012021
1125.0,0.0043942,605.208,2273.74,2273.09,0.000219305,0.00021049
1128.0,0.0,605.373,2278.24,2277.58,0.0,-8.81455e-06
1131.0,0.0,605.538,2282.74,2282.08,0.00143292,0.00142411
1134.0,0.00557023,605.703,2287.24,2286.57,0.00557023,0.00556142
1137.0,0.00854086,605.868,2291.74,2291.06,0.00424215,0.00423334
1140.0,0.002978,606.033,2296.23,2295.55,0.00424215,0.00423334
1143.0,0.00290277,606.198,2300.72,2300.03,0.00290277,0.00289396
1146.0,0.00414378,606.363,2305.21,2304.52,0.00414378,0.00413497
1149.0,0.00525802,606.528,2309.7,2309,0.00525802,0.00524921
1152.0,0.000261611,606.693,2314.18,2313.47,0.00189751,0.0018887
1155.0,0.00431746,606.858,2318.66,2317.95,0.0043759,0.00436709
1158.0,0.00465632,607.023,2323.14,2322.42,0.003587,0.00357819
1161.0,0.000534066,607.188,2327.62,2326.89,0.00168761,0.0016788
1164.0,0.000602045,607.353,2332.09,2331.36,0.00354625,0.00353744
1167.0,0.00260006,607.518,2336.56,2335.83,0.00354625,0.00353744
1170.0,0.0054946,607.682,2341.03,2340.29,0.0054946,0.00548579
1173.0,0.00247925,607.847,2345.5,2344.75,0.00247925,0.00247044
1176.0,0.00122583,608.012,2349.96,2349.21,0.00185338,0.00184457
1179.0,0.00822093,608.177,2354.42,2353.67,0.00388233,0.00387352
1182.0,0.00332535,608.342,2358.88,2358.12,0.0020152,0.00200639
1185.0,0.00232661,608.507,2363.34,2362.57,0.00232661,0.0023178
1188.0,0.00302901,608.672,2367.79,2367.02,0.00302901,0.0030202
1191.0,0.0,608.837,2372.25,2371.47,0.000423438,0.000414625
1194.0,0.00834406,609.002,2376.7,2375.91,0.00831419,0.00830538
1197.0,0.00247826,609.167,2381.14,2380.35,0.00245329,0.00244448
1200.0,0.00451724,609.332,2385.59,2384.79,0.00309933,0.00309052
1203.0,0.0,609.497,2390.03,2389.23,0.00182906,0.00182025
1206.0,0.000997844,609.662,2394.47,2393.66,0.000997844,0.00098903
1209.0,0.000588538,609.827,2398.91,2398.09,0.0039898,0.00398099
1212.0,0.00698014,609.992,2403.34,2402.52,0.00413844,0.00412963
1215.0,0.000340767,610.157,2407.78,2406.95,0.00109909,0.00109028
1218.0,0.0,610.322,2412.21,2411.38,0.00109909,0.00109028
1221.0,3.09154e-05,610.487,2416.63,2415.8,0.0,-8.81488e-06
1224.0,0.0017319,610.652,2421.06,2420.22,0.0017319,0.00172308
1227.0,0.00653018,610.817,2425.48,2424.64,0.00653018,0.00652136
1230.0,0.0,610.982,2429.9,2429.05,0.0,-8.81561e-06
1233.0,0.00668178,611.147,2434.32,2433.46,0.00385193,0.00384311
1236.0,0.00150107,611.312,2438.74,2437.87,0.00401526,0.00400644
1239.0,0.00207764,611.477,2443.15,2442.28,0.00285694,0.00284812
1242.0,0.00300542,611.642,2447.56,2446.69,0.00187775,0.00186893
1245.0,0.00159028,611.807,2451.97,2451.09,0.00187775,0.00186893
1248.0,0.00798354,611.972,2456.38,2455.49,0.0069067,0.00689788
1251.0,0.00158422,612.137,2460.78,2459.89,0.00158422,0.0015754
1254.0,0.0,612.302,2465.19,2464.29,0.0031529,0.00314408
1257.0,0.0068372,612.467,2469.59,2468.68,0.00341637,0.00340755
1260.0,0.0,612.632,2473.98,2473.07,0.00213336,0.00212454
1263.0,0.00142134,612.797,2478.38,2477.46,0.00142134,0.00141252
1266.0,0.00227543,612.962,2482.77,2481.85,0.00227543,0.00226661
1269.0,0.0019969,613.127,2487.16,2486.23,0.00355833,0.00354951
1272.0,0.00319891,613.292,2491.55,2490.61,0.00319891,0.00319009
1275.0,0.00481228,613.457,2495.93,2494.99,0.00178064,0.00177182
1278.0,0.0,613.622,2500.32,2499.37,0.0,-8.81923e-06
1281.0,0.00141337,613.787,2504.7,2503.75,0.00141337,0.00140455
1284.0,0.0046375,613.952,2509.07,2508.12,0.00396351,0.00395469
1287.0,0.00494775,614.117,2513.45,2512.49,0.00662343,0.00661461
1290.0,0.0023208,614.282,2517.82,2516.86,0.0023208,0.00231198
1293.0,0.00144961,614.447,2522.19,2521.22,0.00144961,0.00144079
1296.0,0.0061082,614.612,2526.56,2525.59,0.00488966,0.00488084
1299.0,0.00431862,614.777,2530.93,2529.95,0.00243903,0.00243021
1302.0,0.0,614.942,2535.29,2534.3,0.0,-8.82238e-06
1305.0,0.0,615.107,2539.66,2538.66,0.0,-8.82289e-06
1308.0,0.00131068,615.272,2544.02,2543.01,0.00131068,0.00130186
1311.0,0.00175329,615.437,2548.37,2547.37,0.0040319,0.00402308
1314.0,0.00481153,615.602,2552.73,2551.72,0.00329938,0.00329056
1317.0,0.00167554,615.767,2557.08,2556.06,0.00240069,0.00239186
1320.0,0.0,615.932,2561.43,2560.41,0.00186732,0.00185849
1323.0,0.00334085,616.097,2565.78,2564.75,0.00186732,0.00185849
1326.0,0.00463336,616.262,2570.12,2569.09,0.00463336,0.00462453
1329.0,0.00552678,616.427,2574.47,2573.43,0.00552678,0.00551795
1332.0,0.0,616.592,2578.81,2577.76,0.00276951,0.00276068
1335.0,0.00851013,616.757,2583.15,2582.09,0.00471303,0.0047042
1338.0,0.00227667,616.922,2587.48,2586.42,0.00227667,0.00226784
1341.0,0.00886976,617.087,2591.82,2590.75,0.0045299,0.00452107
1344.0,0.00748926,617.252,2596.15,2595.08,0.00489395,0.00488512
1347.0,0.0,617.417,2600.48,2599.4,0.0,-8.83233e-06
1350.0,0.00913209,617.582,2604.8,2603.72,0.00602943,0.0060206
1353.0,0.0,617.747,2609.13,2608.04,0.00502524,0.00501641
1356.0,0.00563148,617.912,2613.45,2612.36,0.00502524,0.00501641
1359.0,0.0,618.077,2617.77,2616.67,0.00112768,0.00111884
1362.0,0.00125366,618.242,2622.09,2620.99,0.00112768,0.00111884
1365.0,0.0012932,618.407,2626.4,2625.3,0.000890547,0.00088171
1368.0,0.00657226,618.572,2630.72,2629.6,0.00544719,0.00543835
1371.0,0.00087681,618.737,2635.03,2633.91,0.00087681,0.000867971
1374.0,0.0033883,618.902,2639.34,2638.21,0.0033883,0.00337946
1377.0,0.00243932,619.067,2643.64,2642.51,0.00243932,0.00243048
1380.0,0.00066011,619.232,2647.95,2646.81,0.000620174,0.000611332
1383.0,0.00521403,619.397,2652.25,2651.11,0.00288664,0.0028778
1386.0,0.00647487,619.562,2656.55,2655.4,0.00660667,0.00659783
1389.0,0.00957678,619.727,2660.84,2659.69,0.00679351,0.00678467
1392.0,0.0,619.892,2665.14,2663.98,0.00201138,0.00200253
1395.0,0.0,620.057,2669.43,2668.27,0.00250057,0.00249172
1398.0,0.00569418,620.222,2673.72,2672.55,0.00481066,0.00480181
1401.0,0.0,620.387,2678.01,2676.84,0.0,-8.8487e-06
1404.0,0.00259976,620.551,2682.29,2681.12,0.00194251,0.00193366
1407.0,0.00160422,620.716,2686.58,2685.39,0.00418288,0.00417403
1410.0,0.0077919,620.881,2690.86,2689.67,0.00510535,0.0050965
1413.0,0.0,621.046,2695.14,2693.94,9.15541e-05,8.27009e-05
1416.0,0.00502028,621.211,2699.41,2698.21,0.00502028,0.00501143
1419.0,0.00225196,621.376,2703.69,2702.48,0.00225196,0.0022431
1422.0,0.0,621.541,2707.96,2706.75,0.00176289,0.00175403
1425.0,0.00518064,621.706,2712.23,2711.01,0.00377661,0.00376775
1428.0,0.00706235,621.871,2716.5,2715.27,0.00407295,0.00406409
1431.0,0.00102056,622.036,2720.76,2719.53,0.00287325,0.00286439
1434.0,0.00155696,622.201,2725.03,2723.79,0.00310139,0.00309253
1437.0,0.0111012,622.366,2729.29,2728.05,0.00908697,0.00907811
1440.0,0.000371939,622.531,2733.54,2732.3,0.00251897,0.00251011
1443.0,0.00314888,622.696,2737.8,2736.55,0.00593869,0.00592983
1446.0,0.00982178,622.861,2742.05,2740.8,0.00933461,0.00932575
1449.0,0.00765205,623.026,2746.31,2745.04,0.00765205,0.00764318
1452.0,0.0,623.191,2750.56,2749.29,0.000169757,0.000160891
1455.0,0.00631171,623.356,2754.8,2753.53,0.00376515,0.00375628
1458.0,0.0,623.521,2759.05,2757.77,0.00376515,0.00375628
1461.0,0.00321012,623.686,2763.29,2762.01,0.00336219,0.00335332
1464.0,0.00219687,623.851,2767.53,2766.24,0.00219687,0.002188
1467.0,0.0010546,624.016,2771.77,2770.47,0.000856413,0.000847544
1470.0,0.00044481,624.181,2776,2774.7,0.00044481,0.00043594
1473.0,0.00324731,624.346,2780.24,2778.93,0.00324731,0.00323844
1476.0,0.00394125,624.511,2784.47,2783.16,0.00363929,0.00363042
1479.0,0.00276588,624.676,2788.7,2787.38,0.00363929,0.00363042
1482.0,0.00208325,624.841,2792.93,2791.6,0.00341491,0.00340604
1485.0,0.0,625.006,2797.15,2795.82,0.00106114,0.00105227
1488.0,0.00210153,625.171,2801.37,2800.04,0.00140955,0.00140068
1491.0,0.000324918,625.336,2805.59,2804.25,0.00230546,0.00229659
1494.0,0.00235928,625.501,2809.81,2808.47,0.00235928,0.0023504
1497.0,0.00182154,625.666,2814.03,2812.68,0.00147239,0.00146351
1500.0,0.00074977,625.831,2818.24,2816.89,0.000716045,0.000707168
1503.0,0.000215534,625.996,2822.45,2821.09,0.000215534,0.000206656
1506.0,0.00286157,626.161,2826.66,2825.3,0.00193886,0.00192998
1509.0,0.00392234,626.326,2830.87,2829.5,0.00392234,0.00391346
1512.0,0.00332991,626.491,2835.07,2833.7,0.00342694,0.00341806
1515.0,0.00501007,626.656,2839.27,2837.89,0.00397515,0.00396627
1518.0,0.0,626.821,2843.48,2842.09,0.0019053,0.00189642
1521.0,0.0,626.986,2847.67,2846.28,0.0019053,0.00189642
1524.0,0.00292029,627.151,2851.87,2850.47,0.00254261,0.00253373
1527.0,0.00055314,627.316,2856.06,2854.66,0.00055314,0.000544255
1530.0,0.00182673,627.481,2860.25,2858.85,0.00398242,0.00397353
1533.0,0.00433716,627.646,2864.44,2863.03,0.00440044,0.00439155
1536.0,0.00988747,627.811,2868.63,2867.21,0.00750466,0.00749577
1539.0,0.00542064,627.976,2872.82,2871.39,0.00537999,0.0053711
1542.0,7.53574e-05,628.141,2877,2875.57,0.0010948,0.00108591
1545.0,0.00654206,628.306,2881.18,2879.74,0.00248607,0.00247718
1548.0,0.00414882,628.471,2885.36,2883.92,0.00312768,0.00311879
1551.0,6.86328e-05,628.636,2889.53,2888.09,0.00312768,0.00311879
1554.0,0.00150646,628.801,2893.71,2892.26,0.00145624,0.00144735
1557.0,0.004871,628.966,2897.88,2896.42,0.00164492,0.00163603
1560.0,0.00374891,629.131,2902.05,2900.59,0.00374891,0.00374002
1563.0,0.0,629.296,2906.21,2904.75,0.00346991,0.00346102
1566.0,0.0043436,629.461,2910.38,2908.91,0.00226024,0.00225135
1569.0,0.0,629.626,2914.54,2913.06,0.00012091,0.000112019
1572.0,0.001414,629.791,2918.7,2917.22,0.001414,0.00140511
1575.0,0.00617495,629.956,2922.86,2921.37,0.00540121,0.00539232
1578.0,0.00515202,630.121,2927.02,2925.52,0.00515202,0.00514313
1581.0,0.00178021,630.286,2931.17,2929.67,0.00444278,0.00443389
1584.0,0.00200677,630.451,2935.32,2933.82,0.00195328,0.00194439
1587.0,0.0,630.616,2939.47,2937.96,0.00162735,0.00161846
1590.0,0.00873554,630.781,2943.62,2942.11,0.00314981,0.00314092
1593.0,0.0,630.946,2947.77,2946.25,0.0,-8.88556e-06
1596.0,0.00587552,631.111,2951.91,2950.38,0.00568078,0.00567189
1599.0,0.00524472,631.276,2956.05,2954.52,0.00840249,0.00839361
1602.0,0.0210837,631.441,2960.19,2958.65,0.0210837,0.0210748
1605.0,0.0434056,631.606,2964.33,2962.79,0.0434056,0.0433967
1608.0,0.0522153,631.771,2968.46,2966.92,0.0518104,0.0518015
1611.0,0.0519643,631.936,2972.6,2971.04,0.0518104,0.0518015
1614.0,0.0329077,632.101,2976.73,2975.17,0.0329077,0.0328988
1617.0,0.013338,632.266,2980.85,2979.29,0.013338,0.0133291
1620.0,0.0,632.431,2984.98,2983.41,0.0,-8.88075e-06
1623.0,0.0,632.596,2989.1,2987.53,0.0,-8.88027e-06
1626.0,0.000205997,632.761,2993.23,2991.65,0.00100137,0.00099249
1629.0,0.00784901,632.926,2997.35,2995.76,0.00784901,0.00784013
1632.0,0.018934,633.091,3001.46,2999.87,0.018934,0.0189251
1635.0,0.0224664,633.256,3005.58,3003.98,0.0222926,0.0222837
1638.0,0.0161757,633.421,3009.69,3008.09,0.0161757,0.0161668
1641.0,0.00230663,633.585,3013.8,3012.2,0.00230663,0.00229775
1644.0,0.0,633.75,3017.91,3016.3,0.0,-8.87748e-06
1647.0,0.00246333,633.915,3022.02,3020.4,0.000662045,0.000653168
1650.0,0.000250249,634.08,3026.12,3024.5,0.000662045,0.000653169
1653.0,0.0,634.245,3030.23,3028.6,0.0,-8.87593e-06
1656.0,0.0,634.41,3034.33,3032.69,0.0,-8.87532e-06
1659.0,0.0,634.575,3038.42,3036.79,0.0,-8.87446e-06
1662.0,0.00495493,634.74,3042.52,3040.88,0.00127291,0.00126404
1665.0,0.0,634.905,3046.61,3044.97,0.00127291,0.00126404
1668.0,0.00282042,635.07,3050.71,3049.05,0.00380879,0.00379992
1671.0,0.00575065,635.235,3054.8,3053.14,0.00575065,0.00574178
1674.0,0.00831672,635.4,3058.88,3057.22,0.00593691,0.00592804
1677.0,0.0,635.565,3062.97,3061.3,0.000460655,0.000451786
1680.0,0.0,635.73,3067.05,3065.38,0.0,-8.86774e-06
1683.0,0.00307156,635.895,3071.13,3069.45,0.000669276,0.000660409
1686.0,0.00239364,636.06,3075.21,3073.53,0.00239364,0.00238477
1689.0,0.00365533,636.225,3079.29,3077.6,0.00245682,0.00244795
1692.0,0.00124269,636.39,3083.36,3081.67,0.0,-8.86433e-06
1695.0,0.000970855,636.555,3087.44,3085.74,0.000970855,0.000961991
1698.0,0.00479795,636.72,3091.51,3089.8,0.00418235,0.00417349
1701.0,0.0,636.885,3095.58,3093.87,0.00150555,0.00149669
1704.0,0.00317039,637.05,3099.64,3097.93,0.00239657,0.00238771
1707.0,0.00364513,637.215,3103.71,3101.99,0.00239657,0.00238771
1710.0,0.00108715,637.38,3107.77,3106.04,0.0,-8.85985e-06
1713.0,0.0,637.545,3111.83,3110.1,0.000111582,0.000102723
1716.0,0.000818151,637.71,3115.89,3114.15,0.000818151,0.000809293
1719.0,0.0024915,637.875,3119.94,3118.2,0.0018574,0.00184854
1722.0,4.76844e-05,638.04,3124,3122.25,0.0018574,0.00184854
1725.0,0.00467804,638.205,3128.05,3126.3,0.00385874,0.00384988
1728.0,0.00481881,638.37,3132.1,3130.34,0.004619,0.00461015
1731.0,0.00254049,638.535,3136.15,3134.38,0.00254049,0.00253164
1734.0,0.0,638.7,3140.19,3138.42,0.00157866,0.00156981
1737.0,0.00503331,638.865,3144.24,3142.46,0.00192399,0.00191514
1740.0,0.0034304,639.03,3148.28,3146.5,0.0034304,0.00342155
1743.0,0.000877868,639.195,3152.32,3150.53,0.000877868,0.000869018
1746.0,0.00378849,639.36,3156.35,3154.56,0.00119224,0.00118339
1749.0,0.0,639.525,3160.39,3158.59,0.00119224,0.00118339
1752.0,0.00704253,639.69,3164.42,3162.62,0.00266063,0.00265178
1755.0,0.0,639.855,3168.45,3166.65,0.00186223,0.00185338
1758.0,0.00553796,640.02,3172.48,3170.67,0.00502092,0.00501207
1761.0,0.00308748,640.185,3176.51,3174.69,0.00308748,0.00307864
1764.0,0.00207523,640.35,3180.53,3178.71,0.00207523,0.00206639
1767.0,0.0,640.515,3184.55,3182.73,0.00283545,0.00282661
1770.0,0.00150981,640.68,3188.58,3186.74,0.00151659,0.00150775
1773.0,0.000556954,640.845,3192.59,3190.76,0.000556954,0.000548113
1776.0,0.0,641.01,3196.61,3194.77,0.00163589,0.00162705
1779.0,0.00171701,641.175,3200.62,3198.78,0.0017775,0.00176866
1782.0,0.0,641.34,3204.64,3202.78,0.00119208,0.00118324
1785.0,0.00197844,641.505,3208.65,3206.79,0.00197844,0.0019696
1788.0,0.00277768,641.67,3212.65,3210.79,0.00277768,0.00276884
1791.0,0.0020347,641.835,3216.66,3214.79,0.00145474,0.0014459
1794.0,0.000774395,642,3220.66,3218.79,0.000175004,0.000166168
1797.0,0.0032765,642.165,3224.67,3222.79,0.0023463,0.00233746
1800.0,0.0,642.33,3228.67,3226.78,0.0,-8.83531e-06
1803.0,0.00109865,642.495,3232.66,3230.78,9.44152e-05,8.55804e-05
1806.0,0.00685504,642.66,3236.66,3234.77,0.00207202,0.00206319
1809.0,0.000994859,642.825,3240.65,3238.76,0.000994859,0.000986026
1812.0,0.00152787,642.99,3244.65,3242.74,0.00146862,0.00145979
1815.0,0.0038448,643.155,3248.64,3246.73,0.0038448,0.00383597
1818.0,0.0010911,643.32,3252.62,3250.71,0.0010911,0.00108227
1821.0,0.00531813,643.485,3256.61,3254.69,0.00404209,0.00403326
1824.0,0.0,643.65,3260.59,3258.67,0.0023618,0.00235297
1827.0,0.00453208,643.815,3264.57,3262.64,0.00391041,0.00390158
1830.0,0.0,643.98,3268.55,3266.62,0.000253681,0.000244852
1833.0,1.90738e-06,644.145,3272.53,3270.59,0.000253681,0.000244853
1836.0,0.0011916,644.31,3276.51,3274.56,0.00136526,0.00135643
1839.0,0.0,644.475,3280.48,3278.53,0.00136526,0.00135643
1842.0,0.00415328,644.64,3284.45,3282.5,0.00310485,0.00309602
1845.0,0.00539127,644.805,3288.42,3286.46,0.0027773,0.00276847
1848.0,0.00315006,644.97,3292.39,3290.42,0.00315006,0.00314124
1851.0,0.0,645.135,3296.35,3294.38,0.0,-8.82393e-06
1854.0,0.00165076,645.3,3300.31,3298.34,0.0013776,0.00136878
1857.0,0.00266202,645.465,3304.28,3302.3,0.000600178,0.000591355
1860.0,0.0,645.63,3308.23,3306.25,0.000215284,0.000206462
1863.0,0.00166677,645.795,3312.19,3310.2,0.00202205,0.00201323
1866.0,0.00150401,645.96,3316.15,3314.15,0.00150401,0.00149519
1869.0,0.00357868,646.125,3320.1,3318.1,0.00342792,0.0034191
1872.0,0.00795702,646.29,3324.05,3322.05,0.0075641,0.00755528
1875.0,0.00350923,646.455,3328,3325.99,0.00537551,0.00536669
1878.0,0.00132076,646.619,3331.95,3329.93,0.00132076,0.00131194
1881.0,0.0,646.784,3335.89,3333.87,0.0,-8.81784e-06
1884.0,0.00254499,646.949,3339.83,3337.81,0.00123511,0.00122629
1887.0,0.0,647.114,3343.78,3341.74,0.00167845,0.00166963
1890.0,0.00754369,647.279,3347.71,3345.68,0.00256383,0.00255501
1893.0,0.00385926,647.444,3351.65,3349.61,0.00385926,0.00385044
1896.0,0.000524326,647.609,3355.59,3353.54,0.00163806,0.00162924
1899.0,0.00341133,647.774,3359.52,3357.47,0.00309215,0.00308333
1902.0,0.00318262,647.939,3363.45,3361.39,0.00309215,0.00308334
1905.0,0.000603613,648.104,3367.38,3365.32,0.0,-8.81422e-06
1908.0,0.0,648.269,3371.31,3369.24,0.0,-8.81384e-06
1911.0,0.0023328,648.434,3375.23,3373.16,0.00209079,0.00208198
1914.0,0.0,648.599,3379.15,3377.08,0.00073941,0.000730597
1917.0,0.00179977,648.764,3383.07,3380.99,0.00073941,0.000730597
1920.0,0.00517627,648.929,3386.99,3384.91,0.00406805,0.00405924
1923.0,0.00287743,649.094,3390.91,3388.82,0.00287743,0.00286862
1926.0,0.0017235,649.259,3394.83,3392.73,0.00191179,0.00190298
1929.0,0.0059696,649.424,3398.74,3396.64,0.00260194,0.00259313
1932.0,0.00119063,649.589,3402.65,3400.54,0.00217857,0.00216976
1935.0,0.00684862,649.754,3406.56,3404.45,0.00193212,0.00192331
1938.0,0.0,649.919,3410.47,3408.35,0.000310903,0.000302092
1941.0,0.00251432,650.084,3414.37,3412.25,0.00251432,0.00250551
1944.0,0.00564806,650.249,3418.27,3416.15,0.00395527,0.00394646
1947.0,0.0,650.414,3422.17,3420.04,0.00107698,0.00106817
1950.0,0.00246194,650.579,3426.07,3423.94,0.00107698,0.00106817
1953.0,0.00228975,650.744,3429.97,3427.83,0.000453506,0.000444695
1956.0,0.000267501,650.909,3433.87,3431.72,0.000267501,0.000258691
1959.0,0.000727893,651.074,3437.76,3435.61,0.0,-8.80964e-06
1962.0,9.34615e-05,651.239,3441.65,3439.49,9.34615e-05,8.46523e-05
1965.0,0.000694907,651.404,3445.54,3443.38,0.00122916,0.00122035
1968.0,0.00200648,651.569,3449.43,3447.26,0.00261983,0.00261102
1971.0,0.00592288,651.734,3453.31,3451.14,0.00412558,0.00411677
1974.0,0.0040126,651.899,3457.2,3455.02,0.00311174,0.00310293
1977.0,0.0,652.064,3461.08,3458.89,0.0,-8.80625e-06
1980.0,0.0,652.229,3464.96,3462.77,0.0,-8.80575e-06
1983.0,0.000762315,652.394,3468.83,3466.64,0.000267033,0.000258228
1986.0,0.00457359,652.559,3472.71,3470.51,0.00457359,0.00456479
1989.0,0.00513784,652.724,3476.58,3474.38,0.00674489,0.00673609
1992.0,0.00554134,652.889,3480.45,3478.25,0.00657219,0.00656339
1995.0,0.0068053,653.054,3484.32,3482.11,0.00607177,0.00606297
1998.0,0.00160491,653.219,3488.19,3485.97,0.00160491,0.00159611
2001.0,0.0,653.384,3492.06,3489.83,0.0,-8.80296e-06
2004.0,0.0,653.549,3495.92,3493.69,0.0,-8.80268e-06
2007.0,0.00137501,653.714,3499.78,3497.55,0.00134192,0.00133312
2010.0,0.0014617,653.879,3503.64,3501.4,0.00134192,0.00133312
2013.0,0.000408179,654.044,3507.5,3505.26,0.0,-8.802e-06
2016.0,0.0,654.209,3511.36,3509.11,0.000461585,0.000452783
2019.0,0.00277887,654.374,3515.21,3512.96,0.000896247,0.000887445
2022.0,0.00410282,654.539,3519.06,3516.8,0.00410282,0.00409402
2025.0,0.00859736,654.704,3522.91,3520.65,0.00689562,0.00688682
2028.0,0.0,654.869,3526.76,3524.49,0.0,-8.80131e-06
2031.0,0.00113107,655.034,3530.61,3528.33,0.000922217,0.000913416
2034.0,0.00254409,655.199,3534.45,3532.17,0.00355538,0.00354658
2037.0,0.00395823,655.364,3538.29,3536.01,0.00395823,0.00394943
2040.0,0.00331318,655.529,3542.13,3539.85,0.00350062,0.00349182
2043.0,0.00671898,655.694,3545.97,3543.68,0.00559319,0.00558439
2046.0,0.0,655.859,3549.81,3547.51,0.0,-8.80097e-06
2047.0,0.0,655.914,3551.09,3548.79,0.0,-8.80096e-06