File: data/processed/processed_data/2024-09-03/2024-09-03_aluminumfoil1cmaway_n_y_y_solid_1000_0_5.csv
Pixels #,Intensity (a.u.),Wavelength (nm),Raman shift (cm-1),Raman shift (cm-1) adjusted,Filtered Intensity (a.u.),Baselined Filtered Intensity (a.u.)
0.0,0.00470461,543.337,392.223,393.994,0.00410344,0.00360423
3.0,0.00240666,543.502,397.81,399.573,0.00322763,0.00272842
6.0,0.00346569,543.667,403.394,405.15,0.00346569,0.00296648
9.0,0.00504658,543.832,408.974,410.723,0.00433242,0.00383321
12.0,0.00315452,543.997,414.551,416.293,0.00315452,0.00265531
15.0,0.00317594,544.162,420.125,421.859,0.00321863,0.00271942
18.0,0.00590126,544.327,425.695,427.422,0.00526956,0.00477035
21.0,0.00239175,544.492,431.261,432.981,0.00260845,0.00210924
24.0,0.00480578,544.657,436.825,438.537,0.00426871,0.0037695
27.0,0.00366752,544.822,442.385,444.09,0.00459224,0.00409303
30.0,0.00508667,544.987,447.941,449.64,0.00492495,0.00442574
33.0,0.00652109,545.152,453.494,455.186,0.00642035,0.00592114
36.0,0.00553236,545.317,459.044,460.728,0.00522411,0.0047249
39.0,0.00399432,545.482,464.591,466.268,0.0035823,0.00308309
42.0,0.00230674,545.647,470.134,471.804,0.00297506,0.00247585
45.0,0.00517855,545.812,475.674,477.337,0.00451941,0.0040202
48.0,0.00429359,545.977,481.21,482.866,0.00429359,0.00379438
51.0,0.000637601,546.142,486.743,488.392,0.00256632,0.00206711
54.0,0.00524895,546.307,492.273,493.915,0.00399768,0.00349847
57.0,0.00308529,546.472,497.8,499.434,0.00386659,0.00336738
60.0,0.00505072,546.637,503.323,504.95,0.00383612,0.00333691
63.0,0.0019349,546.802,508.843,510.463,0.00211493,0.00161572
66.0,0.00115065,546.967,514.359,515.972,0.00175188,0.00125267
69.0,0.00285669,547.132,519.872,521.478,0.00285669,0.00235748
72.0,0.00507542,547.297,525.382,526.981,0.00406828,0.00356907
75.0,0.00236549,547.462,530.888,532.48,0.00236549,0.00186628
78.0,0.0011479,547.627,536.392,537.976,0.00184976,0.00135055
81.0,0.00741028,547.792,541.891,543.469,0.00437683,0.00387762
84.0,0.00422732,547.957,547.388,548.958,0.00437683,0.00387762
87.0,0.00496899,548.122,552.881,554.444,0.00496899,0.00446978
90.0,0.0031746,548.287,558.371,559.927,0.0031746,0.00267539
93.0,0.00252465,548.452,563.858,565.407,0.00283896,0.00233975
96.0,0.00358676,548.617,569.341,570.883,0.00342498,0.00292577
99.0,0.00389507,548.782,574.821,576.356,0.00328771,0.0027885
102.0,0.00289111,548.947,580.298,581.826,0.00289111,0.0023919
105.0,0.00664796,549.112,585.771,587.292,0.005351,0.00485179
108.0,0.00390142,549.277,591.241,592.755,0.00390142,0.00340221
111.0,0.00221996,549.442,596.708,598.215,0.00221996,0.00172075
114.0,0.00306235,549.607,602.172,603.671,0.00388628,0.00338707
117.0,0.00318145,549.772,607.632,609.125,0.00456694,0.00406773
120.0,0.00588849,549.937,613.089,614.575,0.00513475,0.00463554
123.0,0.00417346,550.102,618.543,620.021,0.00417346,0.00367426
126.0,0.0045062,550.267,623.993,625.465,0.00392336,0.00342416
129.0,0.00457953,550.432,629.44,630.905,0.00457953,0.00408033
132.0,0.00265393,550.597,634.884,636.342,0.00283707,0.00233787
135.0,0.00230917,550.762,640.325,641.776,0.00172024,0.00122104
138.0,0.00342012,550.927,645.762,647.206,0.00342012,0.00292092
141.0,0.00546798,551.092,651.197,652.633,0.00523906,0.00473986
144.0,0.00561151,551.257,656.627,658.057,0.00578848,0.00528928
147.0,0.00601444,551.422,662.055,663.478,0.0064752,0.005976
150.0,0.00685378,551.587,667.48,668.895,0.00683236,0.00633316
153.0,0.00410726,551.752,672.901,674.309,0.00347251,0.00297331
156.0,0.00239834,551.917,678.319,679.72,0.00286835,0.00236915
159.0,0.00331704,552.082,683.733,685.128,0.00331704,0.00281784
162.0,0.00382068,552.247,689.145,690.533,0.00382068,0.00332148
165.0,0.00609438,552.412,694.553,695.934,0.00492547,0.00442627
168.0,0.00242927,552.577,699.958,701.332,0.00384523,0.00334603
171.0,0.00667138,552.742,705.36,706.727,0.00469679,0.00419759
174.0,0.00383025,552.907,710.758,712.118,0.00459938,0.00410018
177.0,0.00346109,553.072,716.154,717.507,0.00346109,0.00296189
180.0,0.0026311,553.237,721.546,722.892,0.0026311,0.0021319
183.0,0.00387024,553.402,726.935,728.274,0.00387024,0.00337104
186.0,0.00446545,553.567,732.32,733.652,0.00446545,0.00396625
189.0,0.00615931,553.732,737.703,739.028,0.00596102,0.00546182
192.0,0.00579931,553.897,743.082,744.4,0.00579931,0.00530011
195.0,0.00518906,554.062,748.458,749.769,0.00518906,0.00468987
198.0,0.00322076,554.227,753.831,755.135,0.00322076,0.00272157
201.0,0.00434394,554.392,759.201,760.498,0.00434394,0.00384475
204.0,0.00507954,554.557,764.567,765.858,0.00595537,0.00545618
207.0,0.00632174,554.722,769.93,771.214,0.00609586,0.00559667
210.0,0.00410319,554.887,775.29,776.567,0.00410319,0.003604
213.0,0.00526299,555.052,780.647,781.917,0.00526299,0.0047638
216.0,0.0083668,555.217,786.001,787.264,0.00739628,0.00689709
219.0,0.00512895,555.382,791.352,792.608,0.00512895,0.00462976
222.0,0.00478422,555.546,796.699,797.948,0.00451863,0.00401944
225.0,0.00524516,555.711,802.043,803.285,0.00433581,0.00383662
228.0,0.00363393,555.876,807.384,808.62,0.00433581,0.00383662
231.0,0.00382327,556.041,812.722,813.951,0.00414684,0.00364765
234.0,0.00478776,556.206,818.057,819.278,0.00456502,0.00406583
237.0,0.00426298,556.371,823.388,824.603,0.00437598,0.00387679
240.0,0.00494366,556.536,828.716,829.924,0.00494366,0.00444447
243.0,0.00559992,556.701,834.042,835.243,0.00559992,0.00510073
246.0,0.00543526,556.866,839.364,840.558,0.00569152,0.00519233
249.0,0.00634788,557.031,844.682,845.87,0.00634788,0.00584869
252.0,0.00699499,557.196,849.998,851.179,0.00665628,0.00615709
255.0,0.00556993,557.361,855.311,856.485,0.0054418,0.00494261
258.0,0.00482847,557.526,860.62,861.787,0.0052283,0.00472911
261.0,0.00427928,557.691,865.927,867.087,0.00427928,0.00378009
264.0,0.00486537,557.856,871.23,872.383,0.00486537,0.00436618
267.0,0.006132,558.021,876.53,877.676,0.006132,0.00563282
270.0,0.006831,558.186,881.827,882.966,0.006831,0.00633182
273.0,0.0048139,558.351,887.12,888.253,0.0048139,0.00431472
276.0,0.00267472,558.516,892.411,893.537,0.00396878,0.0034696
279.0,0.00345002,558.681,897.698,898.818,0.00396878,0.0034696
282.0,0.00638295,558.846,902.983,904.095,0.00493339,0.00443421
285.0,0.00400574,559.011,908.264,909.37,0.00426829,0.00376911
288.0,0.00258984,559.176,913.542,914.641,0.00258984,0.00209066
291.0,0.00409148,559.341,918.817,919.909,0.00409148,0.0035923
294.0,0.00591966,559.506,924.089,925.174,0.00529108,0.0047919
297.0,0.00510192,559.671,929.358,930.436,0.00529108,0.0047919
300.0,0.00511733,559.836,934.624,935.695,0.00511733,0.00461815
303.0,0.0039761,560.001,939.886,940.951,0.00453448,0.0040353
306.0,0.00501997,560.166,945.146,946.204,0.00521829,0.00471911
309.0,0.00499266,560.331,950.402,951.454,0.0050568,0.00455762
312.0,0.00541701,560.496,955.656,956.7,0.00503549,0.00453631
315.0,0.00228907,560.661,960.906,961.944,0.00295136,0.00245218
318.0,0.00374188,560.826,966.153,967.184,0.00374188,0.0032427
321.0,0.00427,560.991,971.397,972.421,0.00444101,0.00394183
324.0,0.00491104,561.156,976.638,977.655,0.00491104,0.00441186
327.0,0.00496918,561.321,981.876,982.887,0.00464253,0.00414335
330.0,0.00394394,561.486,987.111,988.115,0.00398372,0.00348454
333.0,0.00435914,561.651,992.342,993.34,0.00435914,0.00385996
336.0,0.00545491,561.816,997.571,998.562,0.00547943,0.00498025
339.0,0.00636146,561.981,1002.8,1003.78,0.00547943,0.00498026
342.0,0.00309924,562.146,1008.02,1009,0.00309924,0.00260007
345.0,0.00251346,562.311,1013.24,1014.21,0.00251346,0.00201429
348.0,0.00314841,562.476,1018.45,1019.42,0.00338656,0.00288739
351.0,0.0050468,562.641,1023.67,1024.63,0.0050468,0.00454763
354.0,0.00479672,562.806,1028.88,1029.83,0.00479672,0.00429755
357.0,0.00238291,562.971,1034.09,1035.03,0.00400348,0.00350431
360.0,0.00559664,563.136,1039.29,1040.23,0.00468104,0.00418187
363.0,0.00361314,563.301,1044.49,1045.42,0.0049162,0.00441703
366.0,0.00493474,563.466,1049.69,1050.61,0.00499572,0.00449655
369.0,0.00478843,563.631,1054.88,1055.8,0.00514849,0.00464932
372.0,0.00575298,563.796,1060.08,1060.99,0.00527684,0.00477767
375.0,0.00297907,563.961,1065.27,1066.17,0.00416921,0.00367004
378.0,0.00539933,564.126,1070.45,1071.35,0.0052833,0.00478413
381.0,0.00548496,564.291,1075.63,1076.52,0.00465175,0.00415258
384.0,0.00275988,564.456,1080.81,1081.7,0.00415467,0.0036555
387.0,0.00379767,564.621,1085.99,1086.87,0.00379767,0.0032985
390.0,0.00389856,564.786,1091.16,1092.03,0.00389856,0.00339939
393.0,0.00367902,564.951,1096.34,1097.2,0.00404841,0.00354924
396.0,0.00286742,565.116,1101.5,1102.36,0.00286742,0.00236825
399.0,0.00290423,565.281,1106.67,1107.52,0.00290423,0.00240506
402.0,0.00306921,565.446,1111.83,1112.67,0.00407624,0.00357707
405.0,0.00452511,565.611,1116.99,1117.82,0.00452511,0.00402594
408.0,0.0044429,565.776,1122.14,1122.97,0.0038141,0.00331493
411.0,0.0043729,565.941,1127.3,1128.12,0.0043729,0.00387374
414.0,0.00565485,566.106,1132.45,1133.26,0.00565485,0.00515569
417.0,0.00307321,566.271,1137.59,1138.4,0.00307321,0.00257405
420.0,0.00370207,566.436,1142.74,1143.54,0.00336631,0.00286715
423.0,0.00378161,566.601,1147.88,1148.67,0.00293614,0.00243698
426.0,0.00339423,566.766,1153.02,1153.81,0.00339423,0.00289507
429.0,0.00307704,566.931,1158.15,1158.93,0.00377584,0.00327668
432.0,0.00583606,567.096,1163.28,1164.06,0.00423705,0.00373789
435.0,0.00364507,567.261,1168.41,1169.18,0.00364507,0.00314591
438.0,0.00291893,567.426,1173.54,1174.3,0.00291893,0.00241977
441.0,0.00434738,567.591,1178.66,1179.42,0.00434738,0.00384822
444.0,0.00470464,567.756,1183.78,1184.53,0.00494261,0.00444345
447.0,0.00701811,567.921,1188.9,1189.64,0.00566609,0.00516693
450.0,0.0032005,568.086,1194.01,1194.75,0.0032005,0.00270134
453.0,0.00377444,568.251,1199.12,1199.85,0.00340531,0.00290615
456.0,0.004208,568.416,1204.23,1204.95,0.00371958,0.00322042
459.0,0.00439437,568.58,1209.33,1210.05,0.00539834,0.00489918
462.0,0.00617988,568.745,1214.44,1215.15,0.00585022,0.00535106
465.0,0.00430933,568.91,1219.53,1220.24,0.00430933,0.00381017
468.0,0.00510607,569.075,1224.63,1225.33,0.00543878,0.00493962
471.0,0.00416937,569.24,1229.72,1230.42,0.00543878,0.00493962
474.0,0.00527739,569.405,1234.81,1235.5,0.00450514,0.00400598
477.0,0.00207932,569.57,1239.9,1240.58,0.00210075,0.00160159
480.0,0.00334298,569.735,1244.99,1245.66,0.00334298,0.00284382
483.0,0.00445101,569.9,1250.07,1250.73,0.00465555,0.0041564
486.0,0.00326712,570.065,1255.14,1255.8,0.00364264,0.00314349
489.0,0.00392653,570.23,1260.22,1260.87,0.00364264,0.00314349
492.0,0.00298069,570.395,1265.29,1265.94,0.00393271,0.00343356
495.0,0.00387204,570.56,1270.36,1271,0.00388745,0.0033883
498.0,0.00360371,570.725,1275.43,1276.06,0.00356999,0.00307084
501.0,0.00257547,570.89,1280.49,1281.12,0.00250841,0.00200926
504.0,0.00183106,571.055,1285.55,1286.17,0.00183106,0.00133191
507.0,0.00261865,571.22,1290.61,1291.22,0.00261865,0.0021195
510.0,0.00191391,571.385,1295.67,1296.27,0.00220681,0.00170766
513.0,0.00432811,571.55,1300.72,1301.32,0.00426112,0.00376197
516.0,0.00435886,571.715,1305.77,1306.36,0.00426112,0.00376197
519.0,0.00416377,571.88,1310.81,1311.4,0.00416377,0.00366462
522.0,0.00651694,572.045,1315.86,1316.44,0.00590643,0.00540728
525.0,0.00474713,572.21,1320.9,1321.47,0.0048203,0.00432116
528.0,0.00542486,572.375,1325.94,1326.5,0.00484205,0.00434291
531.0,0.00240381,572.54,1330.97,1331.53,0.00240381,0.00190467
534.0,0.00446096,572.705,1336,1336.56,0.00547713,0.00497799
537.0,0.00679277,572.87,1341.03,1341.58,0.00584351,0.00534437
540.0,0.00193454,573.035,1346.06,1346.6,0.00361014,0.003111
543.0,0.00570375,573.2,1351.08,1351.61,0.00570375,0.00520461
546.0,0.00712613,573.365,1356.1,1356.63,0.00618297,0.00568383
549.0,0.00380906,573.53,1361.12,1361.64,0.00380906,0.00330992
552.0,0.00516735,573.695,1366.13,1366.65,0.00377565,0.00327652
555.0,0.00253389,573.86,1371.14,1371.65,0.00358363,0.0030845
558.0,0.00409665,574.025,1376.15,1376.65,0.00308667,0.00258754
561.0,0.00346517,574.19,1381.16,1381.65,0.00346517,0.00296604
564.0,0.003618,574.355,1386.16,1386.65,0.003618,0.00311887
567.0,0.00286751,574.52,1391.16,1391.64,0.00343506,0.00293593
570.0,0.00240998,574.685,1396.16,1396.63,0.00352076,0.00302163
573.0,0.00452513,574.85,1401.15,1401.62,0.00452513,0.004026
576.0,0.0048977,575.015,1406.14,1406.61,0.0048977,0.00439857
579.0,0.00202009,575.18,1411.13,1411.59,0.00290825,0.00240913
582.0,0.00199898,575.345,1416.12,1416.57,0.00290825,0.00240913
585.0,0.00588723,575.51,1421.1,1421.54,0.00468804,0.00418892
588.0,0.00322325,575.675,1426.08,1426.52,0.00376351,0.00326439
591.0,0.00320825,575.84,1431.06,1431.49,0.0034952,0.00299608
594.0,0.00365711,576.005,1436.03,1436.46,0.0034952,0.00299608
597.0,0.00350478,576.17,1441,1441.42,0.00337974,0.00288062
600.0,0.00264137,576.335,1445.97,1446.38,0.00300767,0.00250855
603.0,0.00146973,576.5,1450.94,1451.34,0.00190318,0.00140406
606.0,0.00206815,576.665,1455.9,1456.3,0.00206815,0.00156903
609.0,0.00425655,576.83,1460.86,1461.25,0.00386583,0.00336672
612.0,0.00167498,576.995,1465.82,1466.2,0.00312467,0.00262556
615.0,0.00444933,577.16,1470.77,1471.15,0.00379641,0.0032973
618.0,0.00336314,577.325,1475.72,1476.1,0.00336314,0.00286403
621.0,0.00196873,577.49,1480.67,1481.04,0.00232597,0.00182686
624.0,0.00290895,577.655,1485.62,1485.98,0.00232597,0.00182686
627.0,0.00278714,577.82,1490.56,1490.91,0.00282995,0.00233084
630.0,0.00494808,577.985,1495.5,1495.85,0.00412418,0.00362507
633.0,0.00455161,578.15,1500.44,1500.78,0.00419769,0.00369858
636.0,0.00328232,578.315,1505.37,1505.71,0.00347773,0.00297863
639.0,0.00507705,578.48,1510.3,1510.63,0.00430503,0.00380593
642.0,0.00343545,578.645,1515.23,1515.55,0.00329803,0.00279893
645.0,0.00333195,578.81,1520.16,1520.47,0.00295057,0.00245147
648.0,0.000359763,578.975,1525.08,1525.39,0.000750484,0.000251384
651.0,0.00350644,579.14,1530,1530.31,0.0034761,0.002977
654.0,0.00254234,579.305,1534.92,1535.22,0.0034761,0.002977
657.0,0.00432182,579.47,1539.83,1540.13,0.00401682,0.00351772
660.0,0.00599753,579.635,1544.75,1545.03,0.00506655,0.00456746
663.0,0.00384323,579.8,1549.65,1549.93,0.00388003,0.00338094
666.0,0.00462781,579.965,1554.56,1554.83,0.00388946,0.00339037
669.0,0.00370339,580.13,1559.47,1559.73,0.00388946,0.00339037
672.0,0.00439948,580.295,1564.37,1564.63,0.00379513,0.00329604
675.0,0.00387789,580.46,1569.26,1569.52,0.00377099,0.0032719
678.0,0.00180599,580.625,1574.16,1574.41,0.00266364,0.00216455
681.0,0.00392117,580.79,1579.05,1579.29,0.00392117,0.00342209
684.0,0.00432734,580.955,1583.94,1584.18,0.00445561,0.00395653
687.0,0.00374167,581.12,1588.83,1589.06,0.00431245,0.00381337
690.0,0.00489858,581.285,1593.71,1593.94,0.00358622,0.00308714
693.0,0.00174635,581.45,1598.59,1598.81,0.002561,0.00206192
696.0,0.00317488,581.614,1603.47,1603.68,0.00337916,0.00288008
699.0,0.00505202,581.779,1608.35,1608.55,0.00473787,0.0042388
702.0,0.00410014,581.944,1613.22,1613.42,0.00410014,0.00360107
705.0,0.00346564,582.109,1618.09,1618.28,0.00346564,0.00296657
708.0,0.00419226,582.274,1622.96,1623.15,0.00419226,0.00369319
711.0,0.0043726,582.439,1627.83,1628,0.00406732,0.00356825
714.0,0.00317352,582.604,1632.69,1632.86,0.00339335,0.00289428
717.0,0.0029907,582.769,1637.55,1637.71,0.0029907,0.00249163
720.0,0.00148034,582.934,1642.4,1642.56,0.00224654,0.00174748
723.0,0.00312861,583.099,1647.26,1647.41,0.00224654,0.00174748
726.0,0.00130086,583.264,1652.11,1652.26,0.00250318,0.00200412
729.0,0.00142933,583.429,1656.96,1657.1,0.00248544,0.00198638
732.0,0.00248249,583.594,1661.8,1661.94,0.00241545,0.00191639
735.0,0.00278186,583.759,1666.65,1666.77,0.00250434,0.00200528
738.0,0.00125319,583.924,1671.49,1671.61,0.00247716,0.0019781
741.0,0.00338975,584.089,1676.32,1676.44,0.00338975,0.0028907
744.0,0.00512041,584.254,1681.16,1681.27,0.00482429,0.00432524
747.0,0.00322859,584.419,1685.99,1686.09,0.00361292,0.00311387
750.0,0.00402845,584.584,1690.82,1690.92,0.00363802,0.00313897
753.0,0.00441328,584.749,1695.65,1695.74,0.00327515,0.0027761
756.0,0.00340342,584.914,1700.47,1700.55,0.00327515,0.0027761
759.0,0.00411479,585.079,1705.29,1705.37,0.00375753,0.00325849
762.0,0.0014356,585.244,1710.11,1710.18,0.00319669,0.00269765
765.0,0.00366677,585.409,1714.92,1714.99,0.00319669,0.00269765
768.0,0.00343208,585.574,1719.74,1719.8,0.00343208,0.00293304
771.0,0.00264501,585.739,1724.55,1724.6,0.00264501,0.00214597
774.0,0.00302983,585.904,1729.35,1729.4,0.00302983,0.00253079
777.0,0.0034757,586.069,1734.16,1734.2,0.0034757,0.00297666
780.0,0.00231021,586.234,1738.96,1739,0.00270979,0.00221076
783.0,0.00365941,586.399,1743.76,1743.79,0.00365941,0.00316038
786.0,0.00566169,586.564,1748.56,1748.58,0.00427302,0.00377399
789.0,0.004072,586.729,1753.35,1753.37,0.0038189,0.00331987
792.0,0.00199708,586.894,1758.14,1758.15,0.00199708,0.00149805
795.0,0.00377963,587.059,1762.93,1762.94,0.00377963,0.0032806
798.0,0.00285524,587.224,1767.72,1767.72,0.00298046,0.00248143
801.0,0.0039664,587.389,1772.5,1772.49,0.0039664,0.00346738
804.0,0.00474491,587.554,1777.28,1777.27,0.00424452,0.0037455
807.0,0.00211151,587.719,1782.06,1782.04,0.00211151,0.00161249
810.0,0.00217285,587.884,1786.83,1786.81,0.00217285,0.00167383
813.0,0.00125457,588.049,1791.61,1791.57,0.00247539,0.00197637
816.0,0.0024817,588.214,1796.38,1796.34,0.00247539,0.00197637
819.0,0.00312288,588.379,1801.14,1801.1,0.00351372,0.0030147
822.0,0.00467961,588.544,1805.91,1805.86,0.00429488,0.00379587
825.0,0.00295994,588.709,1810.67,1810.61,0.00295994,0.00246093
828.0,0.00356145,588.874,1815.43,1815.37,0.00327784,0.00277883
831.0,0.00297886,589.039,1820.19,1820.12,0.00297886,0.00247985
834.0,0.00252751,589.204,1824.94,1824.86,0.00252751,0.0020285
837.0,0.00382485,589.369,1829.69,1829.61,0.00299792,0.00249891
840.0,0.00287301,589.534,1834.44,1834.35,0.00287301,0.00237401
843.0,0.000956806,589.699,1839.18,1839.09,0.00171681,0.00121781
846.0,0.0025868,589.864,1843.93,1843.83,0.00271181,0.00221281
849.0,0.00467761,590.029,1848.67,1848.56,0.00467761,0.00417861
852.0,0.00436665,590.194,1853.41,1853.29,0.00423226,0.00373326
855.0,0.00318287,590.359,1858.14,1858.02,0.00409547,0.00359647
858.0,0.00473047,590.524,1862.87,1862.75,0.0046024,0.0041034
861.0,0.00531064,590.689,1867.6,1867.47,0.00495368,0.00445469
864.0,0.00412076,590.854,1872.33,1872.2,0.00412076,0.00362177
867.0,0.00301328,591.019,1877.06,1876.91,0.00301328,0.00251429
870.0,0.00328827,591.184,1881.78,1881.63,0.00387411,0.00337512
873.0,0.00526312,591.349,1886.5,1886.34,0.00477799,0.004279
876.0,0.00262058,591.514,1891.21,1891.05,0.00262058,0.00212159
879.0,0.00149175,591.679,1895.93,1895.76,0.00149175,0.000992765
882.0,0.00476361,591.844,1900.64,1900.47,0.00407706,0.00357808
885.0,0.00426039,592.009,1905.35,1905.17,0.00426039,0.00376141
888.0,0.00326583,592.174,1910.05,1909.87,0.00417843,0.00367945
891.0,0.00339739,592.339,1914.76,1914.57,0.00339739,0.00289841
894.0,0.00336415,592.504,1919.46,1919.26,0.00329723,0.00279825
897.0,0.0044906,592.669,1924.16,1923.96,0.004115,0.00361602
900.0,0.00334345,592.834,1928.85,1928.64,0.00334345,0.00284447
903.0,0.00219326,592.999,1933.55,1933.33,0.00219326,0.00169429
906.0,0.00316407,593.164,1938.24,1938.02,0.00324364,0.00274467
909.0,0.00352451,593.329,1942.93,1942.7,0.00315197,0.002653
912.0,0.00215764,593.494,1947.61,1947.38,0.00234369,0.00184472
915.0,0.00197181,593.659,1952.29,1952.05,0.00235623,0.00185726
918.0,0.00203013,593.824,1956.97,1956.73,0.00232017,0.0018212
921.0,0.00387376,593.989,1961.65,1961.4,0.00387376,0.00337479
924.0,0.00569602,594.154,1966.33,1966.07,0.00454266,0.00404369
927.0,0.00406975,594.319,1971,1970.73,0.00452119,0.00402223
930.0,0.00374659,594.484,1975.67,1975.4,0.00344435,0.00294539
933.0,0.00335629,594.648,1980.33,1980.06,0.00321885,0.00271989
936.0,0.0013638,594.813,1985,1984.72,0.00223978,0.00174082
939.0,0.00617073,594.978,1989.66,1989.37,0.00513944,0.00464048
942.0,0.00329322,595.143,1994.32,1994.03,0.00417846,0.0036795
945.0,0.00270455,595.308,1998.98,1998.68,0.00270455,0.00220559
948.0,0.00336408,595.473,2003.63,2003.33,0.00336408,0.00286512
951.0,0.00418535,595.638,2008.28,2007.97,0.00368169,0.00318274
954.0,0.0033678,595.803,2012.93,2012.62,0.00331581,0.00281686
957.0,0.00100299,595.968,2017.58,2017.26,0.00266024,0.00216129
960.0,0.00230645,596.133,2022.22,2021.89,0.00230645,0.0018075
963.0,0.00444915,596.298,2026.86,2026.53,0.00433341,0.00383446
966.0,0.00436709,596.463,2031.5,2031.16,0.00433341,0.00383446
969.0,0.00189547,596.628,2036.14,2035.79,0.00315598,0.00265703
972.0,0.00397103,596.793,2040.77,2040.42,0.00363861,0.00313967
975.0,0.00378521,596.958,2045.4,2045.05,0.00378521,0.00328627
978.0,0.00538775,597.123,2050.03,2049.67,0.00446904,0.0039701
981.0,0.00129562,597.288,2054.66,2054.29,0.00258947,0.00209053
984.0,0.00404868,597.453,2059.28,2058.91,0.00348127,0.00298233
987.0,0.00337152,597.618,2063.9,2063.52,0.00337152,0.00287258
990.0,0.00295986,597.783,2068.52,2068.13,0.00274918,0.00225024
993.0,0.0040558,597.948,2073.14,2072.74,0.0040558,0.00355686
996.0,0.00478552,598.113,2077.75,2077.35,0.00448622,0.00398729
999.0,0.00120304,598.278,2082.36,2081.95,0.00217035,0.00167142
1002.0,0.00385234,598.443,2086.97,2086.56,0.00385234,0.00335341
1005.0,0.00323927,598.608,2091.57,2091.16,0.00323927,0.00274034
1008.0,0.00349596,598.773,2096.18,2095.75,0.00341684,0.00291791
1011.0,0.0029134,598.938,2100.78,2100.35,0.00341684,0.00291791
1014.0,0.00278251,599.103,2105.38,2104.94,0.00226359,0.00176466
1017.0,0.00223658,599.268,2109.97,2109.53,0.00223658,0.00173765
1020.0,0.00382385,599.433,2114.56,2114.12,0.00382385,0.00332493
1023.0,0.00368686,599.598,2119.15,2118.7,0.00341808,0.00291916
1026.0,0.00349799,599.763,2123.74,2123.28,0.00344633,0.00294741
1029.0,0.00293069,599.928,2128.33,2127.86,0.00344633,0.00294741
1032.0,0.00410292,600.093,2132.91,2132.44,0.00290672,0.0024078
1035.0,0.0031572,600.258,2137.49,2137.01,0.0031572,0.00265829
1038.0,0.00341083,600.423,2142.07,2141.59,0.00349651,0.0029976
1041.0,0.00472039,600.588,2146.64,2146.15,0.00331634,0.00281743
1044.0,0.00231286,600.753,2151.22,2150.72,0.00231286,0.00181395
1047.0,0.00158686,600.918,2155.79,2155.29,0.00158686,0.00108795
1050.0,0.00271942,601.083,2160.35,2159.85,0.00271942,0.00222051
1053.0,0.00297611,601.248,2164.92,2164.41,0.00297611,0.00247721
1056.0,0.00210058,601.413,2169.48,2168.96,0.00210058,0.00160168
1059.0,0.00318125,601.578,2174.04,2173.52,0.00318125,0.00268235
1062.0,0.00289777,601.743,2178.6,2178.07,0.00289777,0.00239887
1065.0,0.00386858,601.908,2183.16,2182.62,0.00372492,0.00322603
1068.0,0.00161363,602.073,2187.71,2187.17,0.00184851,0.00134962
1071.0,0.00474512,602.238,2192.26,2191.71,0.00458664,0.00408775
1074.0,0.00377192,602.403,2196.81,2196.25,0.00377192,0.00327304
1077.0,0.00279568,602.568,2201.35,2200.79,0.00287187,0.00237299
1080.0,0.00237487,602.733,2205.89,2205.33,0.0028176,0.00231872
1083.0,0.00396214,602.898,2210.43,2209.86,0.00319897,0.00270009
1086.0,0.00406318,603.063,2214.97,2214.4,0.00384051,0.00334164
1089.0,0.0045518,603.228,2219.51,2218.92,0.00384051,0.00334164
1092.0,0.00277007,603.393,2224.04,2223.45,0.00323659,0.00273772
1095.0,0.00194336,603.558,2228.57,2227.98,0.00201061,0.00151175
1098.0,0.00327733,603.723,2233.1,2232.5,0.00290817,0.00240931
1101.0,0.00472422,603.888,2237.62,2237.02,0.00374176,0.0032429
1104.0,0.00308573,604.053,2242.15,2241.54,0.00308573,0.00258687
1107.0,0.00124582,604.218,2246.67,2246.05,0.00124582,0.000746968
1110.0,0.00185347,604.383,2251.19,2250.56,0.00185347,0.00135462
1113.0,0.0055892,604.548,2255.7,2255.07,0.00415497,0.00365612
1116.0,0.00329458,604.713,2260.21,2259.58,0.00403944,0.00354059
1119.0,0.00341088,604.878,2264.72,2264.08,0.00341088,0.00291204
1122.0,0.00386287,605.043,2269.23,2268.59,0.00325545,0.00275661
1125.0,0.00259976,605.208,2273.74,2273.09,0.00263354,0.0021347
1128.0,0.00222471,605.373,2278.24,2277.58,0.00258504,0.0020862
1131.0,0.00430332,605.538,2282.74,2282.08,0.0036474,0.00314856
1134.0,0.00303105,605.703,2287.24,2286.57,0.00409591,0.00359708
1137.0,0.0035929,605.868,2291.74,2291.06,0.00416675,0.00366792
1140.0,0.00406321,606.033,2296.23,2295.55,0.00416675,0.00366792
1143.0,0.00612961,606.198,2300.72,2300.03,0.00392904,0.00343021
1146.0,0.00372511,606.363,2305.21,2304.52,0.00346549,0.00296667
1149.0,0.00274581,606.528,2309.7,2309,0.00274581,0.00224699
1152.0,0.00194656,606.693,2314.18,2313.47,0.00283758,0.00233876
1155.0,0.00318897,606.858,2318.66,2317.95,0.00318265,0.00268383
1158.0,0.00477318,607.023,2323.14,2322.42,0.00418135,0.00368253
1161.0,0.0036657,607.188,2327.62,2326.89,0.00395573,0.00345692
1164.0,0.0011788,607.353,2332.09,2331.36,0.00319005,0.00269124
1167.0,0.00308345,607.518,2336.56,2335.83,0.00319005,0.00269124
1170.0,0.00358427,607.682,2341.03,2340.29,0.00387703,0.00337822
1173.0,0.00405152,607.847,2345.5,2344.75,0.00405152,0.00355271
1176.0,0.00396944,608.012,2349.96,2349.21,0.00355124,0.00305244
1179.0,0.00455571,608.177,2354.42,2353.67,0.00384485,0.00334605
1182.0,0.00199862,608.342,2358.88,2358.12,0.00199862,0.00149982
1185.0,0.000616467,608.507,2363.34,2362.57,0.00100394,0.000505142
1188.0,0.0019321,608.672,2367.79,2367.02,0.00249658,0.00199778
1191.0,0.00328004,608.837,2372.25,2371.47,0.00297987,0.00248107
1194.0,0.00302881,609.002,2376.7,2375.91,0.00363937,0.00314058
1197.0,0.00470455,609.167,2381.14,2380.35,0.00376744,0.00326865
1200.0,0.00235497,609.332,2385.59,2384.79,0.00344151,0.00294272
1203.0,0.00299615,609.497,2390.03,2389.23,0.00314559,0.0026468
1206.0,0.0028988,609.662,2394.47,2393.66,0.00317326,0.00267447
1209.0,0.00482479,609.827,2398.91,2398.09,0.00482479,0.004326
1212.0,0.0039065,609.992,2403.34,2402.52,0.00428208,0.00378329
1215.0,0.00349481,610.157,2407.78,2406.95,0.00349481,0.00299602
1218.0,0.00206687,610.322,2412.21,2411.38,0.00215527,0.00165649
1221.0,0.00326653,610.487,2416.63,2415.8,0.00290632,0.00240754
1224.0,0.00162801,610.652,2421.06,2420.22,0.00279705,0.00229827
1227.0,0.00190297,610.817,2425.48,2424.64,0.00190297,0.00140419
1230.0,0.00239766,610.982,2429.9,2429.05,0.00239766,0.00189888
1233.0,0.00208973,611.147,2434.32,2433.46,0.00260863,0.00210985
1236.0,0.00342977,611.312,2438.74,2437.87,0.00342977,0.00293099
1239.0,0.00332935,611.477,2443.15,2442.28,0.00369577,0.00319699
1242.0,0.0048525,611.642,2447.56,2446.69,0.00369577,0.003197
1245.0,0.0023259,611.807,2451.97,2451.09,0.00390959,0.00341082
1248.0,0.00383073,611.972,2456.38,2455.49,0.00383073,0.00333196
1251.0,0.00272322,612.137,2460.78,2459.89,0.00271783,0.00221906
1254.0,0.00417668,612.302,2465.19,2464.29,0.00417668,0.00367791
1257.0,0.00433899,612.467,2469.59,2468.68,0.00418289,0.00368412
1260.0,0.00261196,612.632,2473.98,2473.07,0.00261196,0.00211319
1263.0,0.0011718,612.797,2478.38,2477.46,0.00251479,0.00201602
1266.0,0.00362269,612.962,2482.77,2481.85,0.00251479,0.00201603
1269.0,0.00393121,613.127,2487.16,2486.23,0.00393121,0.00343245
1272.0,0.00283589,613.292,2491.55,2490.61,0.00383402,0.00333526
1275.0,0.00192979,613.457,2495.93,2494.99,0.00192979,0.00143103
1278.0,0.000416381,613.622,2500.32,2499.37,0.00140831,0.000909551
1281.0,0.0013261,613.787,2504.7,2503.75,0.00140831,0.000909552
1284.0,0.00409742,613.952,2509.07,2508.12,0.00386567,0.00336691
1287.0,0.00479351,614.117,2513.45,2512.49,0.00386567,0.00336691
1290.0,0.00242254,614.282,2517.82,2516.86,0.0034695,0.00297074
1293.0,0.00314915,614.447,2522.19,2521.22,0.0034695,0.00297074
1296.0,0.00434574,614.612,2526.56,2525.59,0.00382379,0.00332503
1299.0,0.0036502,614.777,2530.93,2529.95,0.0036502,0.00315144
1302.0,0.00234736,614.942,2535.29,2534.3,0.00299748,0.00249872
1305.0,0.00430384,615.107,2539.66,2538.66,0.00261332,0.00211456
1308.0,0.00235706,615.272,2544.02,2543.01,0.00261332,0.00211456
1311.0,0.0017836,615.437,2548.37,2547.37,0.0035111,0.00301234
1314.0,0.00320296,615.602,2552.73,2551.72,0.0035111,0.00301234
1317.0,0.00478101,615.767,2557.08,2556.06,0.00478101,0.00428225
1320.0,0.00400002,615.932,2561.43,2560.41,0.00400002,0.00350126
1323.0,0.00505621,616.097,2565.78,2564.75,0.00451622,0.00401746
1326.0,0.00375641,616.262,2570.12,2569.09,0.00375641,0.00325765
1329.0,0.00152916,616.427,2574.47,2573.43,0.00215164,0.00165288
1332.0,0.00116626,616.592,2578.81,2577.76,0.00155096,0.0010522
1335.0,0.00351641,616.757,2583.15,2582.09,0.00351641,0.00301765
1338.0,0.00461838,616.922,2587.48,2586.42,0.00461838,0.00411962
1341.0,0.00272652,617.087,2591.82,2590.75,0.00319048,0.00269172
1344.0,0.00348668,617.252,2596.15,2595.08,0.00291896,0.00242021
1347.0,0.00143308,617.417,2600.48,2599.4,0.00233327,0.00183452
1350.0,0.00383205,617.582,2604.8,2603.72,0.00324628,0.00274753
1353.0,0.00302969,617.747,2609.13,2608.04,0.00324628,0.00274753
1356.0,0.00309403,617.912,2613.45,2612.36,0.00394226,0.00344351
1359.0,0.0026945,618.077,2617.77,2616.67,0.0026945,0.00219575
1362.0,0.00220036,618.242,2622.09,2620.99,0.00220036,0.00170161
1365.0,0.00203887,618.407,2626.4,2625.3,0.00243272,0.00193397
1368.0,0.00246943,618.572,2630.72,2629.6,0.00243272,0.00193397
1371.0,0.00195087,618.737,2635.03,2633.91,0.00195087,0.00145212
1374.0,0.00283615,618.902,2639.34,2638.21,0.00283615,0.0023374
1377.0,0.00491162,619.067,2643.64,2642.51,0.00390741,0.00340866
1380.0,0.00205843,619.232,2647.95,2646.81,0.00309918,0.00260043
1383.0,0.00160396,619.397,2652.25,2651.11,0.00215642,0.00165767
1386.0,0.00570278,619.562,2656.55,2655.4,0.00446688,0.00396813
1389.0,0.00469898,619.727,2660.84,2659.69,0.00446688,0.00396813
1392.0,0.00375316,619.892,2665.14,2663.98,0.00390254,0.0034038
1395.0,0.00444006,620.057,2669.43,2668.27,0.00393964,0.0034409
1398.0,0.00335081,620.222,2673.72,2672.55,0.0033814,0.00288266
1401.0,0.00214863,620.387,2678.01,2676.84,0.00293913,0.00244039
1404.0,0.00314986,620.551,2682.29,2681.12,0.00200536,0.00150662
1407.0,0.00164861,620.716,2686.58,2685.39,0.00200246,0.00150372
1410.0,0.00345857,620.881,2690.86,2689.67,0.00321122,0.00271249
1413.0,0.00153617,621.046,2695.14,2693.94,0.00297341,0.00247468
1416.0,0.00395343,621.211,2699.41,2698.21,0.00296144,0.00246271
1419.0,0.00388042,621.376,2703.69,2702.48,0.00385616,0.00335743
1422.0,0.0023578,621.541,2707.96,2706.75,0.00276689,0.00226816
1425.0,0.00214135,621.706,2712.23,2711.01,0.00270578,0.00220705
1428.0,0.00211411,621.871,2716.5,2715.27,0.00181496,0.00131623
1431.0,0.00201668,622.036,2720.76,2719.53,0.00175125,0.00125253
1434.0,0.00297212,622.201,2725.03,2723.79,0.00297212,0.0024734
1437.0,0.00504757,622.366,2729.29,2728.05,0.00451954,0.00402082
1440.0,0.00289628,622.531,2733.54,2732.3,0.00293588,0.00243716
1443.0,0.00374795,622.696,2737.8,2736.55,0.00371148,0.00321276
1446.0,0.00391907,622.861,2742.05,2740.8,0.0038459,0.00334719
1449.0,0.00226827,623.026,2746.31,2745.04,0.00222547,0.00172676
1452.0,0.000977573,623.191,2750.56,2749.29,0.00125216,0.000753449
1455.0,0.00323612,623.356,2754.8,2753.53,0.00319638,0.00269767
1458.0,0.00221704,623.521,2759.05,2757.77,0.00244273,0.00194402
1461.0,0.00304734,623.686,2763.29,2762.01,0.00313591,0.0026372
1464.0,0.00435373,623.851,2767.53,2766.24,0.00360923,0.00311052
1467.0,0.00145777,624.016,2771.77,2770.47,0.00216586,0.00166715
1470.0,0.00214464,624.181,2776,2774.7,0.00182732,0.00132861
1473.0,0.00146735,624.346,2780.24,2778.93,0.00179992,0.00130121
1476.0,0.00136685,624.511,2784.47,2783.16,0.00139743,0.000898725
1479.0,0.00325917,624.676,2788.7,2787.38,0.00307925,0.00258055
1482.0,0.00241402,624.841,2792.93,2791.6,0.00356137,0.00306267
1485.0,0.00333892,625.006,2797.15,2795.82,0.00375404,0.00325534
1488.0,0.00441947,625.171,2801.37,2800.04,0.003269,0.0027703
1491.0,0.00149299,625.336,2805.59,2804.25,0.00287247,0.00237377
1494.0,0.00275663,625.501,2809.81,2808.47,0.00312298,0.00262428
1497.0,0.00420644,625.666,2814.03,2812.68,0.00388892,0.00339022
1500.0,0.00360238,625.831,2818.24,2816.89,0.00360238,0.00310368
1503.0,0.00273891,625.996,2822.45,2821.09,0.00273891,0.00224022
1506.0,0.00195785,626.161,2826.66,2825.3,0.00195785,0.00145916
1509.0,0.00341985,626.326,2830.87,2829.5,0.00334362,0.00284493
1512.0,0.0019918,626.491,2835.07,2833.7,0.0023123,0.00181361
1515.0,0.00266034,626.656,2839.27,2837.89,0.00266034,0.00216165
1518.0,0.00237671,626.821,2843.48,2842.09,0.00239813,0.00189945
1521.0,0.00191302,626.986,2847.67,2846.28,0.00191302,0.00141434
1524.0,0.00171789,627.151,2851.87,2850.47,0.00186737,0.00136869
1527.0,0.00250239,627.316,2856.06,2854.66,0.00246583,0.00196715
1530.0,0.00451066,627.481,2860.25,2858.85,0.00432457,0.00382589
1533.0,0.0036655,627.646,2864.44,2863.03,0.0036655,0.00316683
1536.0,0.00224659,627.811,2868.63,2867.21,0.00250898,0.00201031
1539.0,0.00354989,627.976,2872.82,2871.39,0.00354989,0.00305122
1542.0,0.00310756,628.141,2877,2875.57,0.00361099,0.00311232
1545.0,0.00382673,628.306,2881.18,2879.74,0.00382673,0.00332806
1548.0,0.00208127,628.471,2885.36,2883.92,0.00208127,0.00158261
1551.0,4.11994e-05,628.636,2889.53,2888.09,0.00101625,0.000517589
1554.0,0.00297577,628.801,2893.71,2892.26,0.00297577,0.00247711
1557.0,0.00510303,628.966,2897.88,2896.42,0.00316809,0.00266943
1560.0,0.0023718,629.131,2902.05,2900.59,0.0023718,0.00187314
1563.0,0.00151133,629.296,2906.21,2904.75,0.00151133,0.00101267
1566.0,0.00125817,629.461,2910.38,2908.91,0.00125817,0.000759509
1569.0,0.00124916,629.626,2914.54,2913.06,0.00270482,0.00220616
1572.0,0.00423091,629.791,2918.7,2917.22,0.00423091,0.00373225
1575.0,0.00499705,629.956,2922.86,2921.37,0.00499705,0.00449839
1578.0,0.00172565,630.121,2927.02,2925.52,0.00237864,0.00187998
1581.0,0.00284579,630.286,2931.17,2929.67,0.00318764,0.00268898
1584.0,0.00383776,630.451,2935.32,2933.82,0.00318764,0.00268898
1587.0,0.00177487,630.616,2939.47,2937.96,0.00244313,0.00194448
1590.0,0.00482681,630.781,2943.62,2942.11,0.00319413,0.00269548
1593.0,0.00240991,630.946,2947.77,2946.25,0.00283712,0.00233847
1596.0,0.00326759,631.111,2951.91,2950.38,0.00326759,0.00276894
1599.0,0.00328298,631.276,2956.05,2954.52,0.00322796,0.00272931
1602.0,0.00362795,631.441,2960.19,2958.65,0.00350592,0.00300727
1605.0,0.00364334,631.606,2964.33,2962.79,0.00350592,0.00300727
1608.0,0.00326809,631.771,2968.46,2966.92,0.00247775,0.0019791
1611.0,0.0,631.936,2972.6,2971.04,0.00225204,0.00175339
1614.0,0.00364065,632.101,2976.73,2975.17,0.00205375,0.0015551
1617.0,0.00157469,632.266,2980.85,2979.29,0.00205375,0.0015551
1620.0,0.0047792,632.431,2984.98,2983.41,0.00407427,0.00357562
1623.0,0.00162679,632.596,2989.1,2987.53,0.00274379,0.00224513
1626.0,0.00409581,632.761,2993.23,2991.65,0.00289649,0.00239783
1629.0,0.00150799,632.926,2997.35,2995.76,0.00192917,0.00143051
1632.0,0.00156913,633.091,3001.46,2999.87,0.00192917,0.00143051
1635.0,0.0035346,633.256,3005.58,3003.98,0.0033912,0.00289253
1638.0,0.00304946,633.421,3009.69,3008.09,0.00308005,0.00258138
1641.0,0.00404445,633.585,3013.8,3012.2,0.00326628,0.00276761
1644.0,0.00441993,633.75,3017.91,3016.3,0.00390109,0.00340242
1647.0,0.00319625,633.915,3022.02,3020.4,0.0034954,0.00299673
1650.0,0.00256463,634.08,3026.12,3024.5,0.00256463,0.00206595
1653.0,0.00203677,634.245,3030.23,3028.6,0.00203677,0.00153809
1656.0,0.00274488,634.41,3034.33,3032.69,0.00300432,0.00250564
1659.0,0.00450282,634.575,3038.42,3036.79,0.00305022,0.00255154
1662.0,0.00426792,634.74,3042.52,3040.88,0.00357217,0.00307348
1665.0,0.00364545,634.905,3046.61,3044.97,0.00364545,0.00314676
1668.0,0.00377371,635.07,3050.71,3049.05,0.00377371,0.00327502
1671.0,0.00410645,635.235,3054.8,3053.14,0.00410645,0.00360776
1674.0,0.0047932,635.4,3058.88,3057.22,0.00457649,0.0040778
1677.0,0.00358172,635.565,3062.97,3061.3,0.00461631,0.00411761
1680.0,0.00178735,635.73,3067.05,3065.38,0.00222378,0.00172508
1683.0,0.00386571,635.895,3071.13,3069.45,0.00347514,0.00297644
1686.0,0.00347822,636.06,3075.21,3073.53,0.00347514,0.00297644
1689.0,0.00130847,636.225,3079.29,3077.6,0.00130847,0.000809764
1692.0,0.00470826,636.39,3083.36,3081.67,0.00340206,0.00290335
1695.0,0.00234929,636.555,3087.44,3085.74,0.00316112,0.00266241
1698.0,0.00390884,636.72,3091.51,3089.8,0.00390884,0.00341012
1701.0,0.00403099,636.885,3095.58,3093.87,0.00396688,0.00346816
1704.0,0.0023129,637.05,3099.64,3097.93,0.0023129,0.00181418
1707.0,0.00472085,637.215,3103.71,3101.99,0.00472085,0.00422212
1710.0,0.00263044,637.38,3107.77,3106.04,0.00332933,0.0028306
1713.0,0.00245045,637.545,3111.83,3110.1,0.0027404,0.00224167
1716.0,0.00264889,637.71,3115.89,3114.15,0.0027404,0.00224166
1719.0,0.00365606,637.875,3119.94,3118.2,0.00260934,0.0021106
1722.0,0.00150461,638.04,3124,3122.25,0.00260934,0.0021106
1725.0,0.00456869,638.205,3128.05,3126.3,0.00435816,0.00385941
1728.0,0.00367457,638.37,3132.1,3130.34,0.00367457,0.00317582
1731.0,0.00138579,638.535,3136.15,3134.38,0.00287505,0.0023763
1734.0,0.0023197,638.7,3140.19,3138.42,0.0023197,0.00182094
1737.0,0.00384872,638.865,3144.24,3142.46,0.00384872,0.00334996
1740.0,0.00341543,639.03,3148.28,3146.5,0.00341543,0.00291667
1743.0,0.00143792,639.195,3152.32,3150.53,0.00270133,0.00220256
1746.0,0.0043372,639.36,3156.35,3154.56,0.0043372,0.00383843
1749.0,0.00528942,639.525,3160.39,3158.59,0.00472176,0.00422299
1752.0,0.00525286,639.69,3164.42,3162.62,0.00463635,0.00413757
1755.0,0.0034432,639.855,3168.45,3166.65,0.00328759,0.00278881
1758.0,0.00281458,640.02,3172.48,3170.67,0.0029061,0.00240732
1761.0,0.00230499,640.185,3176.51,3174.69,0.00230499,0.0018062
1764.0,0.00254308,640.35,3180.53,3178.71,0.00244233,0.00194354
1767.0,0.00333355,640.515,3184.55,3182.73,0.00270492,0.00220613
1770.0,0.00426135,640.68,3188.58,3186.74,0.00270492,0.00220612
1773.0,0.000858643,640.845,3192.59,3190.76,0.00249744,0.00199864
1776.0,0.00293392,641.01,3196.61,3194.77,0.00293392,0.00243512
1779.0,0.00240601,641.175,3200.62,3198.78,0.00240601,0.00190721
1782.0,0.00304083,641.34,3204.64,3202.78,0.00304083,0.00254202
1785.0,0.00304698,641.505,3208.65,3206.79,0.00304698,0.00254817
1788.0,0.00182021,641.67,3212.65,3210.79,0.00189348,0.00139467
1791.0,0.00225971,641.835,3216.66,3214.79,0.00225971,0.0017609
1794.0,0.00285486,642,3220.66,3218.79,0.00285486,0.00235605
1797.0,0.00546419,642.165,3224.67,3222.79,0.00458526,0.00408645
1800.0,0.00236971,642.33,3228.67,3226.78,0.00253148,0.00203267
1803.0,0.002797,642.495,3232.66,3230.78,0.00253148,0.00203267
1806.0,0.00366986,642.66,3236.66,3234.77,0.00228737,0.00178856
1809.0,0.000395315,642.825,3240.65,3238.76,0.00152751,0.00102869
1812.0,0.00465549,642.99,3244.65,3242.74,0.00465549,0.00415667
1815.0,0.00484474,643.155,3248.64,3246.73,0.00471654,0.00421772
1818.0,0.00180213,643.32,3252.62,3250.71,0.00236975,0.00187093
1821.0,0.00442367,643.485,3256.61,3254.69,0.00351422,0.0030154
1824.0,0.00182051,643.65,3260.59,3258.67,0.00289779,0.00239897
1827.0,0.00421316,643.815,3264.57,3262.64,0.00278188,0.00228306
1830.0,0.00163442,643.98,3268.55,3266.62,0.00204033,0.00154151
1833.0,0.00245539,644.145,3272.53,3270.59,0.00246147,0.00196265
1836.0,0.00246152,644.31,3276.51,3274.56,0.00246152,0.00196269
1839.0,0.00225403,644.475,3280.48,3278.53,0.00236084,0.00186201
1842.0,0.00474128,644.64,3284.45,3282.5,0.00431707,0.00381824
1845.0,0.00455821,644.805,3288.42,3286.46,0.00380134,0.00330251
1848.0,0.00190622,644.97,3292.39,3290.42,0.00313611,0.00263728
1851.0,0.0044484,645.135,3296.35,3294.38,0.00351456,0.00301573
1854.0,0.00399676,645.3,3300.31,3298.34,0.00399676,0.00349793
1857.0,0.0034383,645.465,3304.28,3302.3,0.00370688,0.00320805
1860.0,0.00281576,645.63,3308.23,3306.25,0.00295918,0.00246035
1863.0,0.00350244,645.795,3312.19,3310.2,0.00350244,0.0030036
1866.0,0.00280971,645.96,3316.15,3314.15,0.00280971,0.00231087
1869.0,0.00237332,646.125,3320.1,3318.1,0.00237332,0.00187448
1872.0,0.00401826,646.29,3324.05,3322.05,0.00395112,0.00345228
1875.0,0.00507726,646.455,3328,3325.99,0.00426548,0.00376664
1878.0,0.00275486,646.619,3331.95,3329.93,0.00379249,0.00329365
1881.0,0.00453103,646.784,3335.89,3333.87,0.00453103,0.00403219
1884.0,0.00675276,646.949,3339.83,3337.81,0.0061241,0.00562526
1887.0,0.00307536,647.114,3343.78,3341.74,0.00360638,0.00310754
1890.0,0.00436323,647.279,3347.71,3345.68,0.00436323,0.00386439
1893.0,0.00602954,647.444,3351.65,3349.61,0.00539171,0.00489287
1896.0,0.00445482,647.609,3355.59,3353.54,0.00497058,0.00447174
1899.0,0.00454029,647.774,3359.52,3357.47,0.00497058,0.00447174
1902.0,0.00802546,647.939,3363.45,3361.39,0.00709772,0.00659888
1905.0,0.0075616,648.104,3367.38,3365.32,0.0075616,0.00706276
1908.0,0.00618526,648.269,3371.31,3369.24,0.006524,0.00602516
1911.0,0.00913154,648.434,3375.23,3373.16,0.00851027,0.00801143
1914.0,0.00647472,648.599,3379.15,3377.08,0.00663648,0.00613764
1917.0,0.00675551,648.764,3383.07,3380.99,0.00675551,0.00625667
1920.0,0.0108114,648.929,3386.99,3384.91,0.00969137,0.00919253
1923.0,0.00952047,649.094,3390.91,3388.82,0.00952047,0.00902163
1926.0,0.00784199,649.259,3394.83,3392.73,0.00817464,0.0076758
1929.0,0.00760702,649.424,3398.74,3396.64,0.00817464,0.0076758
1932.0,0.00873009,649.589,3402.65,3400.54,0.00873009,0.00823125
1935.0,0.00794274,649.754,3406.56,3404.45,0.00712485,0.00662601
1938.0,0.00511983,649.919,3410.47,3408.35,0.0060018,0.00550296
1941.0,0.00956022,650.084,3414.37,3412.25,0.00930082,0.00880198
1944.0,0.0106497,650.249,3418.27,3416.15,0.00988068,0.00938184
1947.0,0.0103476,650.414,3422.17,3420.04,0.0108634,0.0103646
1950.0,0.0105612,650.579,3426.07,3423.94,0.0105612,0.0100624
1953.0,0.0100577,650.744,3429.97,3427.83,0.0100577,0.00955886
1956.0,0.0104239,650.909,3433.87,3431.72,0.0105735,0.0100747
1959.0,0.0109855,651.074,3437.76,3435.61,0.0109214,0.0104226
1962.0,0.00916965,651.239,3441.65,3439.49,0.0105979,0.0100991
1965.0,0.0107596,651.404,3445.54,3443.38,0.0103965,0.00989766
1968.0,0.0103721,651.569,3449.43,3447.26,0.0103721,0.00987326
1971.0,0.0103538,651.734,3453.31,3451.14,0.0101646,0.00966576
1974.0,0.0115465,651.899,3457.2,3455.02,0.0105242,0.0100254
1977.0,0.0112075,652.064,3461.08,3458.89,0.0112075,0.0107087
1980.0,0.0119979,652.229,3464.96,3462.77,0.011647,0.0111482
1983.0,0.0108077,652.394,3468.83,3466.64,0.0113998,0.010901
1986.0,0.01259,652.559,3472.71,3470.51,0.0116439,0.0111451
1989.0,0.0124069,652.724,3476.58,3474.38,0.0114364,0.0109376
1992.0,0.012001,652.889,3480.45,3478.25,0.012001,0.0115022
1995.0,0.0170456,653.054,3484.32,3482.11,0.0155899,0.0150911
1998.0,0.0148117,653.219,3488.19,3485.97,0.0148117,0.0143129
2001.0,0.0114059,653.384,3492.06,3489.83,0.0126907,0.0121919
2004.0,0.0138138,653.549,3495.92,3493.69,0.0138138,0.013315
2007.0,0.0152512,653.714,3499.78,3497.55,0.0152512,0.0147524
2010.0,0.0149338,653.879,3503.64,3501.4,0.0150253,0.0145265
2013.0,0.0149734,654.044,3507.5,3505.26,0.0140793,0.0135805
2016.0,0.012709,654.209,3511.36,3509.11,0.0136459,0.0131471
2019.0,0.0160629,654.374,3515.21,3512.96,0.0157272,0.0152284
2022.0,0.0153,654.539,3519.06,3516.8,0.0153,0.0148012
2025.0,0.0143387,654.704,3522.91,3520.65,0.0143387,0.0138399
2028.0,0.0138534,654.869,3526.76,3524.49,0.0138534,0.0133546
2031.0,0.0146316,655.034,3530.61,3528.33,0.0139908,0.013492
2034.0,0.0144302,655.199,3534.45,3532.17,0.0144302,0.0139314
2037.0,0.0155136,655.364,3538.29,3536.01,0.0155136,0.0150148
2040.0,0.0177231,655.529,3542.13,3539.85,0.0172928,0.016794
2043.0,0.0151107,655.694,3545.97,3543.68,0.0151107,0.0146119
2046.0,0.0139633,655.859,3549.81,3547.51,0.0139633,0.0134645
2047.0,0.0138198,655.914,3551.09,3548.79,0.0138198,0.013321