File: data/processed/processed_data/2024-09-03/2024-09-03_calcitecrystal_n_y_y_solid_1000_0_5.csv
Pixels #,Intensity (a.u.),Wavelength (nm),Raman shift (cm-1),Raman shift (cm-1) adjusted,Filtered Intensity (a.u.),Baselined Filtered Intensity (a.u.)
0.0,0.000642151,543.337,392.223,393.994,0.0,-1.75931e-06
3.0,5.03548e-05,543.502,397.81,399.573,5.03548e-05,4.85955e-05
6.0,0.0,543.667,403.394,405.15,0.000293291,0.000291532
9.0,0.00131507,543.832,408.974,410.723,0.000293291,0.000291532
12.0,0.00327242,543.997,414.551,416.293,0.00110412,0.00110236
15.0,0.0,544.162,420.125,421.859,0.0010914,0.00108964
18.0,0.000738282,544.327,425.695,427.422,0.00082297,0.000821212
21.0,0.0,544.492,431.261,432.981,0.000280766,0.000279008
24.0,0.00288294,544.657,436.825,438.537,0.00162992,0.00162816
27.0,0.0,544.822,442.385,444.09,0.000347143,0.000345385
30.0,6.71397e-05,544.987,447.941,449.64,0.000347143,0.000345386
33.0,0.00151325,545.152,453.494,455.186,0.00151325,0.00151149
36.0,0.000483711,545.317,459.044,460.728,0.000188512,0.000186755
39.0,0.00262423,545.482,464.591,466.268,0.00184297,0.00184121
42.0,0.000831617,545.647,470.134,471.804,0.0,-1.75634e-06
45.0,0.0,545.812,475.674,477.337,0.0,-1.75602e-06
48.0,0.0028137,545.977,481.21,482.866,0.00145399,0.00145223
51.0,0.000115142,546.142,486.743,488.392,0.000720353,0.000718598
54.0,0.0,546.307,492.273,493.915,0.000466926,0.000465171
57.0,0.00206429,546.472,497.8,499.434,0.000466926,0.000465171
60.0,0.0,546.637,503.323,504.95,0.0,-1.7545e-06
63.0,0.000140383,546.802,508.843,510.463,0.000650161,0.000648407
66.0,0.000870527,546.967,514.359,515.972,0.000671397,0.000669643
69.0,0.000151064,547.132,519.872,521.478,0.000445055,0.000443301
72.0,0.00267338,547.297,525.382,526.981,0.00102719,0.00102544
75.0,0.0,547.462,530.888,532.48,0.000773251,0.000771498
78.0,0.0,547.627,536.392,537.976,0.000773251,0.000771498
81.0,0.00260681,547.792,541.891,543.469,0.00159482,0.00159307
84.0,0.0,547.957,547.388,548.958,0.000103761,0.000102009
87.0,0.0,548.122,552.881,554.444,0.000103761,0.000102009
90.0,0.00137586,548.287,558.371,559.927,0.000195315,0.000193563
93.0,0.0,548.452,563.858,565.407,0.000968566,0.000966814
96.0,0.00101784,548.617,569.341,570.883,0.000968566,0.000966815
99.0,0.000319994,548.782,574.821,576.356,0.0,-1.7511e-06
102.0,0.000686656,548.947,580.298,581.826,0.000432212,0.000430461
105.0,0.00281987,549.112,585.771,587.292,0.00224715,0.0022454
108.0,0.000472203,549.277,591.241,592.755,0.000472203,0.000470453
111.0,0.000494392,549.442,596.708,598.215,0.000494392,0.000492642
114.0,0.000739109,549.607,602.172,603.671,0.000739109,0.000737359
117.0,0.0,549.772,607.632,609.125,0.00071266,0.00071091
120.0,0.00255118,549.937,613.089,614.575,0.000963099,0.000961349
123.0,0.000288396,550.102,618.543,620.021,0.000288396,0.000286647
126.0,0.0,550.267,623.993,625.465,0.000509651,0.000507902
129.0,0.00309332,550.432,629.44,630.905,0.000821508,0.000819759
132.0,0.0,550.597,634.884,636.342,0.000459297,0.000457548
135.0,0.0,550.762,640.325,641.776,0.000401312,0.000399563
138.0,0.000690789,550.927,645.762,647.206,0.000690789,0.000689041
141.0,0.000810763,551.092,651.197,652.633,0.000810763,0.000809015
144.0,0.00129047,551.257,656.627,658.057,0.000976577,0.000974829
147.0,8.54505e-05,551.422,662.055,663.478,0.000547799,0.000546051
150.0,0.00246624,551.587,667.48,668.895,0.000547799,0.000546051
153.0,0.0,551.752,672.901,674.309,0.0,-1.74757e-06
156.0,0.000216678,551.917,678.319,679.72,0.000216678,0.000214931
159.0,0.000366089,552.082,683.733,685.128,0.000366089,0.000364342
162.0,0.001149,552.247,689.145,690.533,0.001149,0.00114725
165.0,0.00228358,552.412,694.553,695.934,0.00223322,0.00223147
168.0,0.0,552.577,699.958,701.332,0.00032241,0.000320663
171.0,0.0,552.742,705.36,706.727,0.00106928,0.00106753
174.0,0.00106743,552.907,710.758,712.118,0.00106743,0.00106568
177.0,0.0,553.072,716.154,717.507,0.000256352,0.000254606
180.0,0.0024637,553.237,721.546,722.892,0.000256352,0.000254606
183.0,0.0,553.402,726.935,728.274,0.0,-1.74619e-06
186.0,0.0020381,553.567,732.32,733.652,0.00174182,0.00174007
189.0,0.000881145,553.732,737.703,739.028,0.00147351,0.00147176
192.0,0.00248093,553.897,743.082,744.4,0.000528026,0.00052628
195.0,0.0,554.062,748.458,749.769,0.000242618,0.000240872
198.0,0.00212749,554.227,753.831,755.135,0.000359731,0.000357985
201.0,0.0,554.392,759.201,760.498,0.0,-1.7456e-06
204.0,0.00223265,554.557,764.567,765.858,0.000564584,0.000562838
207.0,0.00124043,554.722,769.93,771.214,0.00124043,0.00123868
210.0,0.0,554.887,775.29,776.567,0.000958521,0.000956776
213.0,0.0011394,555.052,780.647,781.917,0.0011394,0.00113765
216.0,0.00251888,555.217,786.001,787.264,0.00249453,0.00249278
219.0,0.000533684,555.382,791.352,792.608,0.000533684,0.000531939
222.0,0.000614939,555.546,796.699,797.948,0.000614939,0.000613194
225.0,0.00136339,555.711,802.043,803.285,0.00106635,0.0010646
228.0,0.00176846,555.876,807.384,808.62,0.00150295,0.0015012
231.0,0.0,556.041,812.722,813.951,0.000767974,0.000766229
234.0,0.00168002,556.206,818.057,819.278,0.000767974,0.000766229
237.0,0.0,556.371,823.388,824.603,0.000719463,0.000717718
240.0,0.0018911,556.536,828.716,829.924,0.00148305,0.00148131
243.0,0.000208985,556.701,834.042,835.243,0.00121716,0.00121542
246.0,0.000915668,556.866,839.364,840.558,0.000915668,0.000913923
249.0,0.0,557.031,844.682,845.87,0.000239567,0.000237822
252.0,0.0,557.196,849.998,851.179,0.00105097,0.00104923
255.0,0.00271471,557.361,855.311,856.485,0.00189295,0.00189121
258.0,0.000300603,557.526,860.62,861.787,0.000335508,0.000333763
261.0,0.00241277,557.691,865.927,867.087,0.00117609,0.00117435
264.0,0.0,557.856,871.23,872.383,0.000381539,0.000379794
267.0,0.000367742,558.021,876.53,877.676,0.000394827,0.000393082
270.0,0.000808474,558.186,881.827,882.966,0.000663259,0.000661514
273.0,0.000526436,558.351,887.12,888.253,0.000107195,0.00010545
276.0,0.000767147,558.516,892.411,893.537,0.000107195,0.00010545
279.0,0.0023125,558.681,897.698,898.818,0.00107118,0.00106944
282.0,0.000154943,558.846,902.983,904.095,0.0014114,0.00140966
285.0,0.000910582,559.011,908.264,909.37,0.000910582,0.000908837
288.0,0.0,559.176,913.542,914.641,0.000189212,0.000187467
291.0,0.00264045,559.341,918.817,919.909,0.00264045,0.00263871
294.0,0.00270873,559.506,924.089,925.174,0.00270873,0.00270699
297.0,0.00117342,559.671,929.358,930.436,0.00112281,0.00112107
300.0,0.00094199,559.836,934.624,935.695,0.00112281,0.00112107
303.0,0.0,560.001,939.886,940.951,0.000697719,0.000695974
306.0,0.000873388,560.166,945.146,946.204,0.000697719,0.000695974
309.0,0.0,560.331,950.402,951.454,0.0,-1.74471e-06
312.0,0.00123846,560.496,955.656,956.7,7.17174e-05,6.99726e-05
315.0,0.0,560.661,960.906,961.944,0.000212037,0.000210292
318.0,0.000256669,560.826,966.153,967.184,0.000256669,0.000254924
321.0,0.000937158,560.991,971.397,972.421,0.000937158,0.000935413
324.0,0.000241283,561.156,976.638,977.655,0.00092476,0.000923015
327.0,0.000828628,561.321,981.876,982.887,0.000828628,0.000826883
330.0,0.0,561.486,987.111,988.115,0.000334236,0.000332491
333.0,0.000447089,561.651,992.342,993.34,0.000447089,0.000445344
336.0,0.00308035,561.816,997.571,998.562,0.0019583,0.00195655
339.0,0.000498716,561.981,1002.8,1003.78,0.000498716,0.000496971
342.0,0.0024492,562.146,1008.02,1009,0.0024492,0.00244745
345.0,0.0,562.311,1013.24,1014.21,0.000240711,0.000238965
348.0,0.000758437,562.476,1018.45,1019.42,0.000758437,0.000756691
351.0,0.0027863,562.641,1023.67,1024.63,0.00155439,0.00155264
354.0,0.0,562.806,1028.88,1029.83,0.0,-1.74581e-06
357.0,0.00202118,562.971,1034.09,1035.03,0.00134432,0.00134257
360.0,0.000525546,563.136,1039.29,1040.23,0.000476972,0.000475226
363.0,0.000998322,563.301,1044.49,1045.42,0.0,-1.74613e-06
366.0,0.000323873,563.466,1049.69,1050.61,0.0011766,0.00117485
369.0,0.00263924,563.631,1054.88,1055.8,0.00165141,0.00164966
372.0,0.000691361,563.796,1060.08,1060.99,0.000828565,0.000826819
375.0,0.00113718,563.961,1065.27,1066.17,0.00113718,0.00113543
378.0,0.0124788,564.126,1070.45,1071.35,0.0124788,0.0124771
381.0,0.0783371,564.291,1075.63,1076.52,0.0783371,0.0783354
384.0,0.0627989,564.456,1080.81,1081.7,0.0627989,0.0627972
387.0,0.012005,564.621,1085.99,1086.87,0.012005,0.0120033
390.0,0.0,564.786,1091.16,1092.03,0.0,-1.74723e-06
393.0,0.0,564.951,1096.34,1097.2,0.0,-1.74736e-06
396.0,0.0,565.116,1101.5,1102.36,0.0,-1.74751e-06
399.0,0.0,565.281,1106.67,1107.52,0.0,-1.74767e-06
402.0,0.00220722,565.446,1111.83,1112.67,0.000444292,0.000442544
405.0,0.0,565.611,1116.99,1117.82,0.000402838,0.00040109
408.0,0.00128538,565.776,1122.14,1122.97,0.000166323,0.000164575
411.0,0.000388342,565.941,1127.3,1128.12,0.000388342,0.000386594
414.0,0.000403283,566.106,1132.45,1133.26,0.0007187,0.000716951
417.0,0.000897612,566.271,1137.59,1138.4,0.000897612,0.000895863
420.0,0.00134089,566.436,1142.74,1143.54,0.00134089,0.00133914
423.0,0.0,566.601,1147.88,1148.67,0.000311411,0.000309662
426.0,0.000493057,566.766,1153.02,1153.81,0.00114061,0.00113886
429.0,0.00218713,566.931,1158.15,1158.93,0.00141159,0.00140984
432.0,0.000398833,567.096,1163.28,1164.06,0.000398833,0.000397083
435.0,0.000770136,567.261,1168.41,1169.18,0.00023429,0.00023254
438.0,0.000677501,567.426,1173.54,1174.3,0.000677501,0.000675751
441.0,0.0,567.591,1178.66,1179.42,0.00132334,0.00132159
444.0,0.000631851,567.756,1183.78,1184.53,0.00102089,0.00101914
447.0,0.00383129,567.921,1188.9,1189.64,0.00155572,0.00155397
450.0,0.0,568.086,1194.01,1194.75,0.000332647,0.000330896
453.0,0.000947077,568.251,1199.12,1199.85,0.000748074,0.000746323
456.0,0.0042806,568.416,1204.23,1204.95,0.00100099,0.000999238
459.0,0.000445563,568.58,1209.33,1210.05,0.0018822,0.00188045
462.0,0.00284326,568.745,1214.44,1215.15,0.00195055,0.0019488
465.0,0.0,568.91,1219.53,1220.24,0.0,-1.75222e-06
468.0,0.0016839,569.075,1224.63,1225.33,0.0016839,0.00168215
471.0,0.00208038,569.24,1229.72,1230.42,0.00208038,0.00207863
474.0,0.000802625,569.405,1234.81,1235.5,0.000579461,0.000577708
477.0,0.0,569.57,1239.9,1240.58,0.000708019,0.000706266
480.0,0.00158808,569.735,1244.99,1245.66,0.000708019,0.000706265
483.0,0.0,569.9,1250.07,1250.73,0.000100837,9.90832e-05
486.0,0.00089526,570.065,1255.14,1255.8,0.00089526,0.000893506
489.0,0.000755957,570.23,1260.22,1260.87,0.000755957,0.000754203
492.0,0.000859083,570.395,1265.29,1265.94,0.000859083,0.000857328
495.0,0.0,570.56,1270.36,1271,0.000700326,0.000698571
498.0,0.00217924,570.725,1275.43,1276.06,0.00203428,0.00203252
501.0,0.00182956,570.89,1280.49,1281.12,0.00203428,0.00203252
504.0,0.0,571.055,1285.55,1286.17,0.000810254,0.000808498
507.0,0.00198177,571.22,1290.61,1291.22,0.00112472,0.00112296
510.0,0.000378424,571.385,1295.67,1296.27,0.000378424,0.000376668
513.0,6.43422e-05,571.55,1300.72,1301.32,0.000423184,0.000421427
516.0,0.0,571.715,1305.77,1306.36,0.0016331,0.00163134
519.0,0.000977849,571.88,1310.81,1311.4,0.0016331,0.00163134
522.0,0.00249212,572.045,1315.86,1316.44,0.00199804,0.00199628
525.0,0.0,572.21,1320.9,1321.47,0.0,-1.7579e-06
528.0,0.0013159,572.375,1325.94,1326.5,0.000329595,0.000327837
531.0,0.000859083,572.54,1330.97,1331.53,0.000497698,0.000495939
534.0,0.000579525,572.705,1336,1336.56,0.000579525,0.000577766
537.0,0.0,572.87,1341.03,1341.58,0.000616083,0.000614324
540.0,0.000886041,573.035,1346.06,1346.6,0.000848402,0.000846642
543.0,0.00199989,573.2,1351.08,1351.61,0.00199989,0.00199813
546.0,0.00167849,573.365,1356.1,1356.63,0.00167849,0.00167673
549.0,0.0,573.53,1361.12,1361.64,4.95918e-05,4.78313e-05
552.0,0.00233686,573.695,1366.13,1366.65,0.00200465,0.00200289
555.0,0.0,573.86,1371.14,1371.65,0.000559243,0.000557482
558.0,0.00159965,574.025,1376.15,1376.65,0.00117043,0.00116867
561.0,0.00163017,574.19,1381.16,1381.65,0.00117043,0.00116867
564.0,0.0,574.355,1386.16,1386.65,0.000338369,0.000336607
567.0,0.000263854,574.52,1391.16,1391.64,0.000263854,0.000262092
570.0,0.000822461,574.685,1396.16,1396.63,0.000663513,0.000661751
573.0,0.00343423,574.85,1401.15,1401.62,0.00227665,0.00227489
576.0,0.0,575.015,1406.14,1406.61,0.000489815,0.000488052
579.0,0.000416063,575.18,1411.13,1411.59,0.000489815,0.000488052
582.0,0.0,575.345,1416.12,1416.57,0.000524402,0.000522639
585.0,0.00151185,575.51,1421.1,1421.54,0.00156939,0.00156763
588.0,0.00160188,575.675,1426.08,1426.52,0.00160188,0.00160012
591.0,0.00186529,575.84,1431.06,1431.49,0.00138247,0.00138071
594.0,0.0,576.005,1436.03,1436.46,2.79749e-05,2.62109e-05
597.0,0.0018911,576.17,1441,1441.42,0.000221256,0.000219492
600.0,0.00146766,576.335,1445.97,1446.38,0.000221256,0.000219492
603.0,0.0,576.5,1450.94,1451.34,0.000482185,0.00048042
606.0,0.00290138,576.665,1455.9,1456.3,0.00091872,0.000916955
609.0,0.0,576.83,1460.86,1461.25,0.00091872,0.000916955
612.0,0.000387579,576.995,1465.82,1466.2,0.00074038,0.000738615
615.0,0.000813878,577.16,1470.77,1471.15,0.00080326,0.000801495
618.0,0.00370381,577.325,1475.72,1476.1,0.0010605,0.00105873
621.0,0.0,577.49,1480.67,1481.04,0.000480659,0.000478893
624.0,0.0020524,577.655,1485.62,1485.98,0.00116636,0.00116459
627.0,1.5259e-05,577.82,1490.56,1490.91,0.00104829,0.00104652
630.0,0.00347906,577.985,1495.5,1495.85,0.00158109,0.00157932
633.0,0.000148013,578.15,1500.44,1500.78,0.000951654,0.000949887
636.0,0.000423692,578.315,1505.37,1505.71,0.000423692,0.000421925
639.0,0.000244144,578.48,1510.3,1510.63,0.000325271,0.000323504
642.0,0.00262061,578.645,1515.23,1515.55,0.000962081,0.000960314
645.0,0.00074197,578.81,1520.16,1520.47,0.000758373,0.000756606
648.0,0.000677373,578.975,1525.08,1525.39,0.000677373,0.000675605
651.0,0.00129911,579.14,1530,1530.31,0.00129911,0.00129734
654.0,0.0,579.305,1534.92,1535.22,0.0011539,0.00115213
657.0,0.00159495,579.47,1539.83,1540.13,0.000175479,0.000173711
660.0,0.00091338,579.635,1544.75,1545.03,1.71664e-05,1.53979e-05
663.0,0.000720544,579.8,1549.65,1549.93,0.00167728,0.00167551
666.0,0.0,579.965,1554.56,1554.83,0.000407416,0.000405647
669.0,0.0015816,580.13,1559.47,1559.73,0.0014121,0.00141033
672.0,0.000745975,580.295,1564.37,1564.63,0.000826658,0.000824889
675.0,0.0,580.46,1569.26,1569.52,0.000826658,0.000824889
678.0,0.000517917,580.625,1574.16,1574.41,0.000630516,0.000628746
681.0,0.00173762,580.79,1579.05,1579.29,0.00065741,0.00065564
684.0,0.00215273,580.955,1583.94,1584.18,0.000932326,0.000930556
687.0,0.0,581.12,1588.83,1589.06,0.000890173,0.000888403
690.0,0.00288097,581.285,1593.71,1593.94,0.00114754,0.00114577
693.0,0.000201419,581.45,1598.59,1598.81,0.000258831,0.00025706
696.0,0.00117895,581.614,1603.47,1603.68,0.000646601,0.00064483
699.0,0.00101956,581.779,1608.35,1608.55,0.000646601,0.00064483
702.0,0.000301938,581.944,1613.22,1613.42,0.000301938,0.000300167
705.0,3.46507e-05,582.109,1618.09,1618.28,0.000832634,0.000830863
708.0,0.000352038,582.274,1622.96,1623.15,0.000787366,0.000785595
711.0,0.00199989,582.439,1627.83,1628,0.000787366,0.000785595
714.0,0.0,582.604,1632.69,1632.86,0.00127871,0.00127694
717.0,0.00139607,582.769,1637.55,1637.71,0.00139607,0.0013943
720.0,0.00115727,582.934,1642.4,1642.56,0.00054818,0.000546409
723.0,0.000677246,583.099,1647.26,1647.41,3.75118e-05,3.57408e-05
726.0,0.0010647,583.264,1652.11,1652.26,0.000888965,0.000887194
729.0,0.0,583.429,1656.96,1657.1,0.000450459,0.000448688
732.0,0.000227042,583.594,1661.8,1661.94,0.000303655,0.000301884
735.0,0.00178918,583.759,1666.65,1666.77,0.00178918,0.00178741
738.0,0.000347461,583.924,1671.49,1671.61,0.000347461,0.00034569
741.0,0.000390631,584.089,1676.32,1676.44,0.000390631,0.000388861
744.0,0.0012239,584.254,1681.16,1681.27,0.00150003,0.00149826
747.0,0.00141108,584.419,1685.99,1686.09,0.00141108,0.00140931
750.0,0.000492866,584.584,1690.82,1690.92,0.0021046,0.00210283
753.0,0.00286463,584.749,1695.65,1695.74,0.0021046,0.00210283
756.0,0.000862198,584.914,1700.47,1700.55,0.000862198,0.000860428
759.0,0.00105008,585.079,1705.29,1705.37,0.00105008,0.00104831
762.0,0.0,585.244,1710.11,1710.18,6.52323e-05,6.34626e-05
765.0,0.00104073,585.409,1714.92,1714.99,0.00104073,0.00103896
768.0,0.00220175,585.574,1719.74,1719.8,0.00204916,0.00204739
771.0,0.0,585.739,1724.55,1724.6,0.0008196,0.000817831
774.0,0.000167849,585.904,1729.35,1729.4,0.0008196,0.000817831
777.0,0.00127852,586.069,1734.16,1734.2,0.00142023,0.00141846
780.0,0.000137331,586.234,1738.96,1739,0.000663767,0.000661998
783.0,0.00169121,586.399,1743.76,1743.79,0.00138228,0.00138051
786.0,0.00199353,586.564,1748.56,1748.58,0.0014587,0.00145693
789.0,0.00299325,586.729,1753.35,1753.37,0.00243636,0.00243459
792.0,0.0,586.894,1758.14,1758.15,4.88289e-05,4.706e-05
795.0,0.00110475,587.059,1762.93,1762.94,0.000827039,0.00082527
798.0,0.000676992,587.224,1767.72,1767.72,0.000676992,0.000675223
801.0,0.000479133,587.389,1772.5,1772.49,0.000297106,0.000295338
804.0,0.00130134,587.554,1777.28,1777.27,0.00130134,0.00129957
807.0,0.0,587.719,1782.06,1782.04,0.0,-1.76791e-06
810.0,0.000868238,587.884,1786.83,1786.81,0.000868238,0.00086647
813.0,0.00157937,588.049,1791.61,1791.57,0.00157937,0.0015776
816.0,0.000967422,588.214,1796.38,1796.34,0.000967422,0.000965655
819.0,0.000247196,588.379,1801.14,1801.1,0.00117494,0.00117317
822.0,0.00294658,588.544,1805.91,1805.86,0.00168619,0.00168442
825.0,0.0,588.709,1810.67,1810.61,0.00168619,0.00168442
828.0,0.00262722,588.874,1815.43,1815.37,0.00251278,0.00251101
831.0,0.000226596,589.039,1820.19,1820.12,0.000201546,0.00019978
834.0,0.0,589.204,1824.94,1824.86,0.0,-1.76535e-06
837.0,0.000866712,589.369,1829.69,1829.61,0.000866712,0.000864947
840.0,0.00182326,589.534,1834.44,1834.35,0.00176502,0.00176326
843.0,0.000786603,589.699,1839.18,1839.09,0.000819409,0.000817644
846.0,0.00403086,589.864,1843.93,1843.83,0.00271312,0.00271136
849.0,0.0,590.029,1848.67,1848.56,0.00146022,0.00145846
852.0,0.0,590.194,1853.41,1853.29,0.00146022,0.00145846
855.0,0.000677755,590.359,1858.14,1858.02,0.000677755,0.000675991
858.0,0.0013496,590.524,1862.87,1862.75,0.000340213,0.00033845
861.0,0.00142424,590.689,1867.6,1867.47,0.00142424,0.00142248
864.0,0.00145215,590.854,1872.33,1872.2,0.00145215,0.00145039
867.0,0.0,591.019,1877.06,1876.91,0.000109865,0.000108102
870.0,0.00185461,591.184,1881.78,1881.63,0.00185461,0.00185285
873.0,0.0,591.349,1886.5,1886.34,0.00113375,0.00113199
876.0,0.000425663,591.514,1891.21,1891.05,0.000425663,0.000423901
879.0,0.000437934,591.679,1895.93,1895.76,0.000437934,0.000436172
882.0,0.00160004,591.844,1900.64,1900.47,0.00113235,0.00113059
885.0,0.00255989,592.009,1905.35,1905.17,0.000881717,0.000879955
888.0,0.000109929,592.174,1910.05,1909.87,0.001178,0.00117624
891.0,0.000453765,592.339,1914.76,1914.57,0.001178,0.00117624
894.0,0.000587854,592.504,1919.46,1919.26,0.000587854,0.000586093
897.0,0.00131762,592.669,1924.16,1923.96,0.00131762,0.00131586
900.0,0.000564965,592.834,1928.85,1928.64,0.000564965,0.000563204
903.0,0.000935378,592.999,1933.55,1933.33,0.000935378,0.000933618
906.0,0.00186414,593.164,1938.24,1938.02,0.00186414,0.00186238
909.0,0.00106088,593.329,1942.93,1942.7,0.00106088,0.00105912
912.0,0.00076276,593.494,1947.61,1947.38,0.00076276,0.000761
915.0,0.000484855,593.659,1952.29,1952.05,0.000484855,0.000483095
918.0,0.00209004,593.824,1956.97,1956.73,0.00127305,0.00127129
921.0,0.00167163,593.989,1961.65,1961.4,0.00127305,0.00127129
924.0,0.000407416,594.154,1966.33,1966.07,0.000407416,0.000405657
927.0,0.0025412,594.319,1971,1970.73,0.00108282,0.00108106
930.0,0.00136568,594.484,1975.67,1975.4,0.000949874,0.000948115
933.0,0.0,594.648,1980.33,1980.06,0.000690471,0.000688712
936.0,0.0,594.813,1985,1984.72,0.000259403,0.000257644
939.0,0.00378004,594.978,1989.66,1989.37,0.00306694,0.00306518
942.0,0.0,595.143,1994.32,1994.03,8.27802e-05,8.10219e-05
945.0,0.0,595.308,1998.98,1998.68,4.57771e-06,2.81958e-06
948.0,0.00124647,595.473,2003.63,2003.33,0.00124647,0.00124471
951.0,0.000977722,595.638,2008.28,2007.97,0.00165376,0.001652
954.0,0.0,595.803,2012.93,2012.62,0.000970792,0.000969034
957.0,0.0,595.968,2017.58,2017.26,0.000157168,0.00015541
960.0,0.00307622,596.133,2022.22,2021.89,0.000990311,0.000988554
963.0,0.00170545,596.298,2026.86,2026.53,0.00141318,0.00141142
966.0,0.0,596.463,2031.5,2031.16,0.000512703,0.000510946
969.0,0.000978612,596.628,2036.14,2035.79,2.13626e-05,1.96059e-05
972.0,0.00200415,596.793,2040.77,2040.42,0.0,-1.75648e-06
975.0,0.000674449,596.958,2045.4,2045.05,0.000674449,0.000672693
978.0,0.0010434,597.123,2050.03,2049.67,0.000890809,0.000889053
981.0,0.0,597.288,2054.66,2054.29,0.000596882,0.000595126
984.0,0.00369637,597.453,2059.28,2058.91,0.00296788,0.00296612
987.0,0.000815404,597.618,2063.9,2063.52,0.000815404,0.000813649
990.0,0.0,597.783,2068.52,2068.13,0.0,-1.75509e-06
993.0,0.00108339,597.948,2073.14,2072.74,0.00108339,0.00108164
996.0,0.00287391,598.113,2077.75,2077.35,0.00187139,0.00186964
999.0,6.40879e-05,598.278,2082.36,2081.95,6.40879e-05,6.23334e-05
1002.0,0.00190337,598.443,2086.97,2086.56,0.00190337,0.00190162
1005.0,0.000431322,598.608,2091.57,2091.16,0.00034638,0.000344626
1008.0,0.0,598.773,2096.18,2095.75,0.00034638,0.000344626
1011.0,0.00181245,598.938,2100.78,2100.35,0.00181245,0.0018107
1014.0,0.00053254,599.103,2105.38,2104.94,0.00053254,0.000530786
1017.0,0.000331566,599.268,2109.97,2109.53,0.000968058,0.000966305
1020.0,0.00127038,599.433,2114.56,2114.12,0.000968058,0.000966305
1023.0,0.00160315,599.598,2119.15,2118.7,0.000436853,0.0004351
1026.0,0.0,599.763,2123.74,2123.28,0.000414982,0.000413229
1029.0,0.000749409,599.928,2128.33,2127.86,0.00111238,0.00111063
1032.0,0.00164302,600.093,2132.91,2132.44,0.00164302,0.00164127
1035.0,0.0,600.258,2137.49,2137.01,0.0,-1.75231e-06
1038.0,0.0,600.423,2142.07,2141.59,0.0,-1.75215e-06
1041.0,0.000102235,600.588,2146.64,2146.15,0.00072137,0.000719618
1044.0,0.000538326,600.753,2151.22,2150.72,0.0005663,0.000564548
1047.0,0.001307,600.918,2155.79,2155.29,0.001307,0.00130525
1050.0,0.0,601.083,2160.35,2159.85,0.00117819,0.00117644
1053.0,0.000603113,601.248,2164.92,2164.41,0.000829964,0.000828213
1056.0,0.00081178,601.413,2169.48,2168.96,0.000829964,0.000828213
1059.0,0.0,601.578,2174.04,2173.52,0.0,-1.75118e-06
1062.0,0.00164034,601.743,2178.6,2178.07,0.00164034,0.00163859
1065.0,0.00213696,601.908,2183.16,2182.62,0.00213696,0.00213521
1068.0,0.0,602.073,2187.71,2187.17,6.33249e-05,6.15741e-05
1071.0,0.000770899,602.238,2192.26,2191.71,0.000439523,0.000437772
1074.0,0.00276627,602.403,2196.81,2196.25,0.00121163,0.00120988
1077.0,0.0,602.568,2201.35,2200.79,0.00121163,0.00120988
1080.0,0.00433445,602.733,2205.89,2205.33,0.00271153,0.00270978
1083.0,0.00136893,602.898,2210.43,2209.86,0.00136893,0.00136718
1086.0,0.000314336,603.063,2214.97,2214.4,0.000314336,0.000312586
1089.0,0.0,603.228,2219.51,2218.92,0.000446072,0.000444322
1092.0,0.0,603.393,2224.04,2223.45,0.000446072,0.000444322
1095.0,0.000193281,603.558,2228.57,2227.98,0.000434056,0.000432307
1098.0,9.53053e-05,603.723,2233.1,2232.5,0.000352102,0.000350353
1101.0,0.00128494,603.888,2237.62,2237.02,0.00128494,0.00128319
1104.0,0.0,604.053,2242.15,2241.54,0.000540169,0.00053842
1107.0,0.0,604.218,2246.67,2246.05,0.000307469,0.00030572
1110.0,0.000340276,604.383,2251.19,2250.56,0.000700262,0.000698513
1113.0,0.00409756,604.548,2255.7,2255.07,0.000757865,0.000756116
1116.0,0.00124056,604.713,2260.21,2259.58,0.000916559,0.00091481
1119.0,0.0,604.878,2264.72,2264.08,0.000178531,0.000176782
1122.0,0.000260675,605.043,2269.23,2268.59,0.000260675,0.000258927
1125.0,0.00084891,605.208,2273.74,2273.09,0.00101816,0.00101641
1128.0,0.000200275,605.373,2278.24,2277.58,0.000532222,0.000530474
1131.0,0.000387261,605.538,2282.74,2282.08,0.000604448,0.0006027
1134.0,0.00239045,605.703,2287.24,2286.57,0.000604448,0.0006027
1137.0,0.000205997,605.868,2291.74,2291.06,0.000205997,0.000204249
1140.0,0.000699054,606.033,2296.23,2295.55,0.00124889,0.00124714
1143.0,0.00119453,606.198,2300.72,2300.03,0.00119453,0.00119278
1146.0,0.0,606.363,2305.21,2304.52,0.0,-1.7476e-06
1149.0,0.0011017,606.528,2309.7,2309,0.0011017,0.00109995
1152.0,0.00181131,606.693,2314.18,2313.47,0.00141661,0.00141486
1155.0,0.0,606.858,2318.66,2317.95,0.0,-1.74703e-06
1158.0,0.00179255,607.023,2323.14,2322.42,0.00179255,0.0017908
1161.0,0.00160302,607.188,2327.62,2326.89,0.00160302,0.00160127
1164.0,0.0,607.353,2332.09,2331.36,0.000138857,0.000137111
1167.0,0.00252047,607.518,2336.56,2335.83,0.000392348,0.000390602
1170.0,0.0,607.682,2341.03,2340.29,0.000392348,0.000390602
1173.0,0.000403092,607.847,2345.5,2344.75,0.000403092,0.000401346
1176.0,0.00225566,608.012,2349.96,2349.21,0.00213251,0.00213076
1179.0,0.00230494,608.177,2354.42,2353.67,0.00213251,0.00213076
1182.0,0.000154116,608.342,2358.88,2358.12,0.000154116,0.00015237
1185.0,0.0,608.507,2363.34,2362.57,0.000708782,0.000707037
1188.0,0.002014,608.672,2367.79,2367.02,0.00110749,0.00110574
1191.0,7.07637e-05,608.837,2372.25,2371.47,0.00110749,0.00110574
1194.0,0.000115969,609.002,2376.7,2375.91,0.000581369,0.000579624
1197.0,0.00351199,609.167,2381.14,2380.35,0.00117558,0.00117384
1200.0,0.000567763,609.332,2385.59,2384.79,0.000567763,0.000566018
1203.0,0.0,609.497,2390.03,2389.23,0.0,-1.74457e-06
1206.0,0.000907912,609.662,2394.47,2393.66,0.00144808,0.00144634
1209.0,0.00254012,609.827,2398.91,2398.09,0.00254012,0.00253838
1212.0,0.0,609.992,2403.34,2402.52,0.000499415,0.000497671
1215.0,0.0,610.157,2407.78,2406.95,2.91829e-05,2.74388e-05
1218.0,0.00105211,610.322,2412.21,2411.38,0.00105211,0.00105037
1221.0,0.00144121,610.487,2416.63,2415.8,0.00144121,0.00143947
1224.0,0.0,610.652,2421.06,2420.22,0.000645711,0.000643967
1227.0,0.0,610.817,2425.48,2424.64,0.000868238,0.000866495
1230.0,0.00192613,610.982,2429.9,2429.05,0.00101091,0.00100917
1233.0,0.00104067,611.147,2434.32,2433.46,0.000792452,0.000790709
1236.0,0.00102871,611.312,2438.74,2437.87,0.000376898,0.000375155
1239.0,0.00172891,611.477,2443.15,2442.28,0.000376898,0.000375155
1242.0,0.0,611.642,2447.56,2446.69,0.0,-1.74251e-06
1245.0,0.0,611.807,2451.97,2451.09,0.0,-1.74236e-06
1248.0,0.00012487,611.972,2456.38,2455.49,0.00115511,0.00115337
1251.0,0.00399036,612.137,2460.78,2459.89,0.00115511,0.00115337
1254.0,0.00101231,612.302,2465.19,2464.29,0.00101231,0.00101057
1257.0,0.0,612.467,2469.59,2468.68,0.000607309,0.000605567
1260.0,0.00352878,612.632,2473.98,2473.07,0.00179052,0.00178878
1263.0,0.0,612.797,2478.38,2477.46,0.0010886,0.00108686
1266.0,0.00166183,612.962,2482.77,2481.85,0.000733959,0.000732218
1269.0,0.00114436,613.127,2487.16,2486.23,0.000365263,0.000363522
1272.0,0.000275553,613.292,2491.55,2490.61,0.000365263,0.000363522
1275.0,0.0,613.457,2495.93,2494.99,0.0,-1.74116e-06
1278.0,0.0,613.622,2500.32,2499.37,0.000990438,0.000988697
1281.0,0.000382048,613.787,2504.7,2503.75,0.000544747,0.000543006
1284.0,0.00138323,613.952,2509.07,2508.12,0.00138323,0.00138149
1287.0,0.0003034,614.117,2513.45,2512.49,0.00122854,0.0012268
1290.0,0.000471885,614.282,2517.82,2516.86,0.000471885,0.000470144
1293.0,0.00375353,614.447,2522.19,2521.22,0.00169782,0.00169608
1296.0,0.000240075,614.612,2526.56,2525.59,0.000240075,0.000238334
1299.0,0.000218204,614.777,2530.93,2529.95,0.000218204,0.000216463
1302.0,0.000275235,614.942,2535.29,2534.3,0.00113686,0.00113512
1305.0,0.00282845,615.107,2539.66,2538.66,0.00059542,0.00059368
1308.0,0.00077465,615.272,2544.02,2543.01,0.0,-1.74034e-06
1311.0,9.61318e-05,615.437,2548.37,2547.37,0.0,-1.74029e-06
1314.0,0.00198081,615.602,2552.73,2551.72,0.000814832,0.000813092
1317.0,0.00131259,615.767,2557.08,2556.06,0.000980964,0.000979224
1320.0,0.0,615.932,2561.43,2560.41,0.000980964,0.000979224
1323.0,0.000525292,616.097,2565.78,2564.75,0.000224308,0.000222568
1326.0,0.000644821,616.262,2570.12,2569.09,0.0,-1.74014e-06
1329.0,0.0,616.427,2574.47,2573.43,0.000573739,0.000571999
1332.0,7.6168e-05,616.592,2578.81,2577.76,0.000495918,0.000494178
1335.0,0.00134203,616.757,2583.15,2582.09,0.00115549,0.00115375
1338.0,0.00173781,616.922,2587.48,2586.42,0.00173781,0.00173607
1341.0,0.000770581,617.087,2591.82,2590.75,0.000129384,0.000127644
1344.0,0.00118963,617.252,2596.15,2595.08,6.02731e-05,5.8533e-05
1347.0,0.0,617.417,2600.48,2599.4,6.02731e-05,5.8533e-05
1350.0,0.00333213,617.582,2604.8,2603.72,0.00114449,0.00114275
1353.0,0.000256924,617.747,2609.13,2608.04,0.000256924,0.000255184
1356.0,0.0,617.912,2613.45,2612.36,0.0,-1.7402e-06
1359.0,0.000265507,618.077,2617.77,2616.67,0.000157931,0.000156191
1362.0,0.002121,618.242,2622.09,2620.99,0.000292465,0.000290725
1365.0,0.000412693,618.407,2626.4,2625.3,0.000203962,0.000202222
1368.0,0.0,618.572,2630.72,2629.6,1.83108e-05,1.65705e-05
1371.0,0.00220289,618.737,2635.03,2633.91,0.00113985,0.00113811
1374.0,0.0,618.902,2639.34,2638.21,0.00113985,0.00113811
1377.0,0.00215902,619.067,2643.64,2642.51,0.0018033,0.00180156
1380.0,0.0,619.232,2647.95,2646.81,0.00061176,0.00061002
1383.0,0.00130509,619.397,2652.25,2651.11,0.00113324,0.0011315
1386.0,0.000717301,619.562,2656.55,2655.4,0.00113324,0.0011315
1389.0,0.0013838,619.727,2660.84,2659.69,0.00087892,0.00087718
1392.0,0.0,619.892,2665.14,2663.98,0.000448615,0.000446875
1395.0,0.0039627,620.057,2669.43,2668.27,0.00296858,0.00296684
1398.0,0.000209049,620.222,2673.72,2672.55,0.000681252,0.000679511
1401.0,0.00103984,620.387,2678.01,2676.84,0.000681252,0.000679511
1404.0,0.000512703,620.551,2682.29,2681.12,0.000350958,0.000349217
1407.0,0.0,620.716,2686.58,2685.39,0.00031281,0.000311069
1410.0,0.0024677,620.881,2690.86,2689.67,0.00125887,0.00125713
1413.0,0.00229807,621.046,2695.14,2693.94,0.00117374,0.001172
1416.0,0.000207777,621.211,2699.41,2698.21,0.0,-1.74078e-06
1419.0,0.000315862,621.376,2703.69,2702.48,0.000315862,0.000314121
1422.0,0.00101879,621.541,2707.96,2706.75,0.00101879,0.00101705
1425.0,5.41059e-05,621.706,2712.23,2711.01,0.000440731,0.00043899
1428.0,0.00123897,621.871,2716.5,2715.27,0.00115524,0.0011535
1431.0,0.00194909,622.036,2720.76,2719.53,0.00122326,0.00122152
1434.0,0.0,622.201,2725.03,2723.79,0.000189212,0.000187471
1437.0,0.00173285,622.366,2729.29,2728.05,0.00173285,0.00173111
1440.0,0.00177481,622.531,2733.54,2732.3,0.00177481,0.00177307
1443.0,0.0,622.696,2737.8,2736.55,3.83383e-05,3.65975e-05
1446.0,0.00111982,622.861,2742.05,2740.8,0.00111982,0.00111808
1449.0,0.00328247,623.026,2746.31,2745.04,0.00154726,0.00154552
1452.0,0.0,623.191,2750.56,2749.29,0.00016467,0.00016293
1455.0,0.00105866,623.356,2754.8,2753.53,0.000984906,0.000983166
1458.0,0.0,623.521,2759.05,2757.77,0.000984906,0.000983166
1461.0,0.00119109,623.686,2763.29,2762.01,0.00119109,0.00118935
1464.0,0.000420005,623.851,2767.53,2766.24,0.000420005,0.000418265
1467.0,0.0,624.016,2771.77,2770.47,0.000357061,0.000355321
1470.0,0.0010675,624.181,2776,2774.7,0.000357061,0.000355321
1473.0,0.000749536,624.346,2780.24,2778.93,0.000372511,0.000370771
1476.0,4.13901e-05,624.511,2784.47,2783.16,0.000748582,0.000746842
1479.0,0.0,624.676,2788.7,2787.38,0.0,-1.73941e-06
1482.0,0.0,624.841,2792.93,2791.6,0.0,-1.73921e-06
1485.0,0.000278922,625.006,2797.15,2795.82,0.000278922,0.000277183
1488.0,0.000547799,625.171,2801.37,2800.04,0.000346761,0.000345022
1491.0,0.00129867,625.336,2805.59,2804.25,0.000789273,0.000787534
1494.0,0.0,625.501,2809.81,2808.47,0.000536355,0.000534617
1497.0,0.0,625.666,2814.03,2812.68,0.000469978,0.00046824
1500.0,0.0,625.831,2818.24,2816.89,0.000225961,0.000224223
1503.0,0.00174983,625.996,2822.45,2821.09,0.000918911,0.000917173
1506.0,0.0011539,626.161,2826.66,2825.3,0.0011539,0.00115216
1509.0,0.0,626.326,2830.87,2829.5,0.0,-1.73769e-06
1512.0,0.00288847,626.491,2835.07,2833.7,0.00125626,0.00125452
1515.0,0.0,626.656,2839.27,2837.89,0.000265507,0.00026377
1518.0,0.000257369,626.821,2843.48,2842.09,0.000257369,0.000255632
1521.0,0.0,626.986,2847.67,2846.28,0.0,-1.73715e-06
1524.0,0.000644312,627.151,2851.87,2850.47,0.000194425,0.000192688
1527.0,0.00239389,627.316,2856.06,2854.66,0.000194425,0.000192688
1530.0,0.000170901,627.481,2860.25,2858.85,0.000170901,0.000169164
1533.0,0.0,627.646,2864.44,2863.03,0.000459042,0.000457305
1536.0,0.00116871,627.811,2868.63,2867.21,0.00116871,0.00116697
1539.0,0.00203066,627.976,2872.82,2871.39,0.000547417,0.000545681
1542.0,0.00127108,628.141,2877,2875.57,0.000727474,0.000725738
1545.0,0.00173056,628.306,2881.18,2879.74,0.000984143,0.000982407
1548.0,0.0,628.471,2885.36,2883.92,0.0,-1.73611e-06
1551.0,4.11994e-05,628.636,2889.53,2888.09,4.11994e-05,3.94634e-05
1554.0,0.00156812,628.801,2893.71,2892.26,0.00125537,0.00125363
1557.0,0.0011862,628.966,2897.88,2896.42,0.00108008,0.00107834
1560.0,0.000843824,629.131,2902.05,2900.59,0.000843824,0.000842089
1563.0,0.0,629.296,2906.21,2904.75,0.0,-1.73516e-06
1566.0,0.00129549,629.461,2910.38,2908.91,0.000948285,0.00094655
1569.0,0.00104327,629.626,2914.54,2913.06,0.000948285,0.00094655
1572.0,0.000116286,629.791,2918.7,2917.22,0.00044372,0.000441985
1575.0,0.00117526,629.956,2922.86,2921.37,0.00117526,0.00117353
1578.0,0.0,630.121,2927.02,2925.52,8.39882e-05,8.2254e-05
1581.0,0.0,630.286,2931.17,2929.67,0.000528534,0.0005268
1584.0,0.00305085,630.451,2935.32,2933.82,0.00120705,0.00120532
1587.0,0.000494392,630.616,2939.47,2937.96,0.00120705,0.00120532
1590.0,0.000692632,630.781,2943.62,2942.11,0.000692632,0.000690899
1593.0,0.000603113,630.946,2947.77,2946.25,0.0,-1.73329e-06
1596.0,0.000262773,631.111,2951.91,2950.38,0.000262773,0.00026104
1599.0,0.00108975,631.276,2956.05,2954.52,0.000419623,0.00041789
1602.0,0.000556191,631.441,2960.19,2958.65,0.000145914,0.000144181
1605.0,0.00135913,631.606,2964.33,2962.79,0.000434628,0.000432895
1608.0,0.000112917,631.771,2968.46,2966.92,0.000112917,0.000111184
1611.0,0.000784314,631.936,2972.6,2971.04,0.0,-1.73236e-06
1614.0,0.00116744,632.101,2976.73,2975.17,0.000608835,0.000607103
1617.0,0.000579843,632.266,2980.85,2979.29,0.00166845,0.00166672
1620.0,0.00183331,632.431,2984.98,2983.41,0.00183331,0.00183158
1623.0,0.0,632.596,2989.1,2987.53,0.000273454,0.000271722
1626.0,0.000735803,632.761,2993.23,2991.65,0.000735803,0.000734071
1629.0,0.0,632.926,2997.35,2995.76,0.001042,0.00104027
1632.0,0.00146874,633.091,3001.46,2999.87,0.00135538,0.00135365
1635.0,0.00129708,633.256,3005.58,3003.98,0.00106928,0.00106755
1638.0,0.0,633.421,3009.69,3008.09,0.000588299,0.000586568
1641.0,0.000813115,633.585,3013.8,3012.2,0.000588299,0.000586568
1644.0,0.0,633.75,3017.91,3016.3,0.000388914,0.000387183
1647.0,0.00191749,633.915,3022.02,3020.4,0.00113266,0.00113093
1650.0,0.0,634.08,3026.12,3024.5,0.000311475,0.000309744
1653.0,0.0,634.245,3030.23,3028.6,1.06813e-05,8.95054e-06
1656.0,0.0,634.41,3034.33,3032.69,0.000733196,0.000731465
1659.0,0.00102235,634.575,3038.42,3036.79,0.000733196,0.000731465
1662.0,0.000866712,634.74,3042.52,3040.88,0.000343328,0.000341598
1665.0,0.000387897,634.905,3046.61,3044.97,0.000387897,0.000386167
1668.0,0.0,635.07,3050.71,3049.05,0.000190038,0.000188308
1671.0,0.000247705,635.235,3054.8,3053.14,0.0,-1.73023e-06
1674.0,0.0,635.4,3058.88,3057.22,0.0,-1.73016e-06
1677.0,0.0,635.565,3062.97,3061.3,0.000161428,0.000159698
1680.0,0.000248341,635.73,3067.05,3065.38,0.000248341,0.000246611
1683.0,0.00143384,635.895,3071.13,3069.45,0.0010256,0.00102387
1686.0,0.0,636.06,3075.21,3073.53,0.0,-1.72996e-06
1689.0,0.000111391,636.225,3079.29,3077.6,0.000111391,0.000109661
1692.0,0.00276481,636.39,3083.36,3081.67,0.000774014,0.000772284
1695.0,0.000561532,636.555,3087.44,3085.74,0.000561532,0.000559802
1698.0,0.00313757,636.72,3091.51,3089.8,0.00252009,0.00251836
1701.0,0.0,636.885,3095.58,3093.87,9.82935e-05,9.65637e-05
1704.0,0.0,637.05,3099.64,3097.93,0.000105287,0.000103557
1707.0,0.000851708,637.215,3103.71,3101.99,0.000105287,0.000103557
1710.0,0.0,637.38,3107.77,3106.04,0.0,-1.72982e-06
1713.0,0.000965769,637.545,3111.83,3110.1,0.000311284,0.000309554
1716.0,0.0,637.71,3115.89,3114.15,0.000264871,0.000263141
1719.0,0.00200745,637.875,3119.94,3118.2,0.000861753,0.000860023
1722.0,0.0,638.04,3124,3122.25,1.22072e-05,1.04773e-05
1725.0,0.00134661,638.205,3128.05,3126.3,0.00134661,0.00134488
1728.0,0.0,638.37,3132.1,3130.34,0.00145953,0.0014578
1731.0,0.0,638.535,3136.15,3134.38,0.000842298,0.000840568
1734.0,0.00216691,638.7,3140.19,3138.42,0.000549325,0.000547595
1737.0,0.000358651,638.865,3144.24,3142.46,0.000549325,0.000547595
1740.0,6.10361e-05,639.03,3148.28,3146.5,6.10361e-05,5.93062e-05
1743.0,0.0,639.195,3152.32,3150.53,0.0,-1.72985e-06
1746.0,0.00187444,639.36,3156.35,3154.56,0.00136339,0.00136166
1749.0,0.000206633,639.525,3160.39,3158.59,0.000914651,0.000912921
1752.0,0.000880255,639.69,3164.42,3162.62,0.000880255,0.000878525
1755.0,0.00113807,639.855,3168.45,3166.65,0.0,-1.72982e-06
1758.0,0.0,640.02,3172.48,3170.67,0.0,-1.72982e-06
1761.0,0.00136085,640.185,3176.51,3174.69,0.000807584,0.000805854
1764.0,0.000290939,640.35,3180.53,3178.71,0.000817311,0.000815581
1767.0,0.0,640.515,3184.55,3182.73,0.0,-1.72988e-06
1770.0,0.000633249,640.68,3188.58,3186.74,0.0,-1.72991e-06
1773.0,0.000297551,640.845,3192.59,3190.76,0.000297551,0.000295821
1776.0,0.000576918,641.01,3196.61,3194.77,0.000576918,0.000575188
1779.0,0.000715648,641.175,3200.62,3198.78,0.000715648,0.000713918
1782.0,0.00226844,641.34,3204.64,3202.78,0.00181805,0.00181632
1785.0,0.0,641.505,3208.65,3206.79,0.0,-1.73014e-06
1788.0,0.000151064,641.67,3212.65,3210.79,0.0,-1.7302e-06
1791.0,0.000155642,641.835,3216.66,3214.79,0.000155642,0.000153912
1794.0,0.00247082,642,3220.66,3218.79,0.00167938,0.00167765
1797.0,4.84474e-05,642.165,3224.67,3222.79,0.000428143,0.000426413
1800.0,0.0,642.33,3228.67,3226.78,0.0,-1.73036e-06
1803.0,6.1799e-05,642.495,3232.66,3230.78,2.8102e-05,2.63717e-05
1806.0,0.0022371,642.66,3236.66,3234.77,0.000163272,0.000161542
1809.0,1.06813e-05,642.825,3240.65,3238.76,0.0,-1.73003e-06
1812.0,0.00194317,642.99,3244.65,3242.74,0.00188087,0.00187914
1815.0,0.000602159,643.155,3248.64,3246.73,0.000602223,0.000600493
1818.0,0.0,643.32,3252.62,3250.71,0.0,-1.72962e-06
1821.0,0.00361067,643.485,3256.61,3254.69,0.00134279,0.00134106
1824.0,0.0,643.65,3260.59,3258.67,0.000236896,0.000235167
1827.0,0.0,643.815,3264.57,3262.64,6.86656e-05,6.69363e-05
1830.0,0.000968058,643.98,3268.55,3266.62,0.000317388,0.000315659
1833.0,0.00160569,644.145,3272.53,3270.59,0.00160569,0.00160396
1836.0,0.0,644.31,3276.51,3274.56,0.000732433,0.000730704
1839.0,0.00174678,644.475,3280.48,3278.53,0.00069365,0.000691921
1842.0,0.000495918,644.64,3284.45,3282.5,0.00069365,0.000691921
1845.0,0.000369841,644.805,3288.42,3286.46,0.00101034,0.00100861
1848.0,0.0,644.97,3292.39,3290.42,0.000340594,0.000338865
1851.0,0.00125213,645.135,3296.35,3294.38,0.000318723,0.000316994
1854.0,0.0,645.3,3300.31,3298.34,0.0,-1.72845e-06
1857.0,0.0014697,645.465,3304.28,3302.3,0.00141165,0.00140992
1860.0,0.00198132,645.63,3308.23,3306.25,0.00141165,0.00140992
1863.0,0.000619516,645.795,3312.19,3310.2,0.000619516,0.000617788
1866.0,0.00049897,645.96,3316.15,3314.15,0.00049897,0.000497242
1869.0,0.000527962,646.125,3320.1,3318.1,0.00143893,0.0014372
1872.0,0.0022137,646.29,3324.05,3322.05,0.00212088,0.00211915
1875.0,0.000183935,646.455,3328,3325.99,0.000183935,0.000182207
1878.0,0.0,646.619,3331.95,3329.93,0.000770581,0.000768853
1881.0,0.00464001,646.784,3335.89,3333.87,0.0017291,0.00172737
1884.0,0.0,646.949,3339.83,3337.81,0.0,-1.72801e-06
1887.0,0.0,647.114,3343.78,3341.74,0.0,-1.728e-06
1890.0,0.0,647.279,3347.71,3345.68,0.0,-1.72793e-06
1893.0,0.000777829,647.444,3351.65,3349.61,7.18446e-05,7.01167e-05
1896.0,0.000482185,647.609,3355.59,3353.54,0.000482185,0.000480457
1899.0,0.000298123,647.774,3359.52,3357.47,0.00124259,0.00124086
1902.0,0.000148839,647.939,3363.45,3361.39,0.00016893,0.000167202
1905.0,0.0,648.104,3367.38,3365.32,4.49505e-05,4.3223e-05
1908.0,0.0,648.269,3371.31,3369.24,0.000251202,0.000249475
1911.0,0.00248894,648.434,3375.23,3373.16,0.00113336,0.00113163
1914.0,0.0,648.599,3379.15,3377.08,0.000149538,0.000147811
1917.0,0.000485237,648.764,3383.07,3380.99,0.000485237,0.00048351
1920.0,0.00272399,648.929,3386.99,3384.91,0.00235587,0.00235414
1923.0,0.0,649.094,3390.91,3388.82,0.0,-1.72642e-06
1926.0,0.0,649.259,3394.83,3392.73,0.0,-1.72625e-06
1929.0,0.00270829,649.424,3398.74,3396.64,0.00127953,0.0012778
1932.0,0.000423374,649.589,3402.65,3400.54,0.00127953,0.0012778
1935.0,0.0012906,649.754,3406.56,3404.45,0.00102731,0.00102558
1938.0,0.0,649.919,3410.47,3408.35,0.0,-1.72564e-06
1941.0,0.000121055,650.084,3414.37,3412.25,0.000121055,0.00011933
1944.0,0.00107881,650.249,3418.27,3416.15,0.000843824,0.000842099
1947.0,0.00142112,650.414,3422.17,3420.04,0.00156125,0.00155952
1950.0,0.00112523,650.579,3426.07,3423.94,0.00112523,0.0011235
1953.0,0.000296025,650.744,3429.97,3427.83,0.000296025,0.0002943
1956.0,0.00279126,650.909,3433.87,3431.72,0.00182511,0.00182339
1959.0,6.31978e-05,651.074,3437.76,3435.61,6.31978e-05,6.14731e-05
1962.0,0.0,651.239,3441.65,3439.49,0.0,-1.72462e-06
1965.0,0.00132664,651.404,3445.54,3443.38,0.00087288,0.000871155
1968.0,0.0,651.569,3449.43,3447.26,0.00141286,0.00141114
1971.0,0.000437807,651.734,3453.31,3451.14,0.000437807,0.000436083
1974.0,0.0,651.899,3457.2,3455.02,5.63312e-05,5.4607e-05
1977.0,0.0,652.064,3461.08,3458.89,0.000440986,0.000439262
1980.0,0.00232204,652.229,3464.96,3462.77,0.00113972,0.001138
1983.0,0.0,652.394,3468.83,3466.64,0.00113972,0.001138
1986.0,0.00269945,652.559,3472.71,3470.51,0.00194889,0.00194717
1989.0,0.00250966,652.724,3476.58,3474.38,0.00194889,0.00194717
1992.0,0.0,652.889,3480.45,3478.25,0.000225961,0.000224237
1995.0,0.00255131,653.054,3484.32,3482.11,0.00196466,0.00196294
1998.0,0.0,653.219,3488.19,3485.97,7.7821e-05,7.60973e-05
2001.0,0.0,653.384,3492.06,3489.83,7.7821e-05,7.60974e-05
2004.0,0.00200249,653.549,3495.92,3493.69,0.00112243,0.00112071
2007.0,0.00110602,653.714,3499.78,3497.55,0.00148451,0.00148279
2010.0,0.0,653.879,3503.64,3501.4,0.000373846,0.000372122
2013.0,0.00180756,654.044,3507.5,3505.26,0.000373846,0.000372123
2016.0,3.0518e-06,654.209,3511.36,3509.11,0.00134209,0.00134037
2019.0,0.00337205,654.374,3515.21,3512.96,0.00180393,0.00180221
2022.0,0.000125124,654.539,3519.06,3516.8,0.000125124,0.000123401
2025.0,0.0,654.704,3522.91,3520.65,0.000406653,0.00040493
2028.0,0.000608708,654.869,3526.76,3524.49,0.00127362,0.0012719
2031.0,0.000796203,655.034,3530.61,3528.33,0.000937985,0.000936262
2034.0,0.0,655.199,3534.45,3532.17,0.0,-1.72326e-06
2037.0,0.000158694,655.364,3538.29,3536.01,0.000158694,0.000156971
2040.0,0.00318564,655.529,3542.13,3539.85,0.000836194,0.000834471
2043.0,0.0,655.694,3545.97,3543.68,0.000128176,0.000126453
2046.0,0.00045758,655.859,3549.81,3547.51,0.000128176,0.000126453
2047.0,0.000554411,655.914,3551.09,3548.79,0.000128176,0.000126453