File: data/processed/processed_data/2024-09-03/2024-09-03_glycinepowder_n_y_y_solid_1000_0_20.csv
Pixels #,Intensity (a.u.),Wavelength (nm),Raman shift (cm-1),Raman shift (cm-1) adjusted,Filtered Intensity (a.u.),Baselined Filtered Intensity (a.u.)
0.0,0.00256851,543.337,392.223,393.994,0.000727186,0.000723563
3.0,0.00109106,543.502,397.81,399.573,0.000727186,0.000723563
6.0,0.000242646,543.667,403.394,405.15,0.000550088,0.000546465
9.0,0.00160584,543.832,408.974,410.723,0.00147183,0.00146821
12.0,0.00125435,543.997,414.551,416.293,0.00125435,0.00125073
15.0,0.000940923,544.162,420.125,421.859,0.00124397,0.00124035
18.0,0.00192436,544.327,425.695,427.422,0.00140183,0.00139821
21.0,0.0,544.492,431.261,432.981,0.000234035,0.000230412
24.0,0.00166067,544.657,436.825,438.537,0.00150073,0.00149711
27.0,0.000716521,544.822,442.385,444.09,0.000891004,0.000887381
30.0,0.00105386,544.987,447.941,449.64,0.00105386,0.00105024
33.0,0.00236207,545.152,453.494,455.186,0.00236207,0.00235845
36.0,0.00216137,545.317,459.044,460.728,0.00134191,0.00133829
39.0,0.00114967,545.482,464.591,466.268,0.00120796,0.00120434
42.0,0.0,545.647,470.134,471.804,0.000225221,0.000221599
45.0,0.000706779,545.812,475.674,477.337,0.000497349,0.000493727
48.0,0.000845368,545.977,481.21,482.866,0.00067573,0.000672108
51.0,0.000972246,546.142,486.743,488.392,0.00071112,0.000707498
54.0,0.000996827,546.307,492.273,493.915,0.000996827,0.000993205
57.0,0.00344885,546.472,497.8,499.434,0.00344885,0.00344523
60.0,0.00653043,546.637,503.323,504.95,0.00653043,0.00652681
63.0,0.00785803,546.802,508.843,510.463,0.00785803,0.00785441
66.0,0.00873717,546.967,514.359,515.972,0.00908241,0.00907879
69.0,0.00903508,547.132,519.872,521.478,0.00903508,0.00903146
72.0,0.0102346,547.297,525.382,526.981,0.00926022,0.0092566
75.0,0.00868609,547.462,530.888,532.48,0.00926022,0.0092566
78.0,0.0107927,547.627,536.392,537.976,0.0107927,0.0107891
81.0,0.0144647,547.792,541.891,543.469,0.0128769,0.0128733
84.0,0.0129342,547.957,547.388,548.958,0.013593,0.0135894
87.0,0.0131242,548.122,552.881,554.444,0.0131242,0.0131206
90.0,0.0104977,548.287,558.371,559.927,0.0101088,0.0101052
93.0,0.00751955,548.452,563.858,565.407,0.00751955,0.00751593
96.0,0.00756332,548.617,569.341,570.883,0.00695657,0.00695295
99.0,0.00445674,548.782,574.821,576.356,0.00445674,0.00445312
102.0,0.0019615,548.947,580.298,581.826,0.00325232,0.0032487
105.0,0.00482848,549.112,585.771,587.292,0.00406496,0.00406134
108.0,0.000794113,549.277,591.241,592.755,0.000794113,0.000790493
111.0,0.00193474,549.442,596.708,598.215,0.00193474,0.00193112
114.0,0.00225597,549.607,602.172,603.671,0.0031222,0.00311858
117.0,0.0024021,549.772,607.632,609.125,0.00260122,0.0025976
120.0,0.00412486,549.937,613.089,614.575,0.00260122,0.0025976
123.0,0.000429411,550.102,618.543,620.021,0.00210148,0.00209786
126.0,0.00298072,550.267,623.993,625.465,0.0025518,0.00254818
129.0,0.00214062,550.432,629.44,630.905,0.00184359,0.00183997
132.0,0.0,550.597,634.884,636.342,5.68399e-05,5.3221e-05
135.0,0.000350385,550.762,640.325,641.776,5.68399e-05,5.32213e-05
138.0,0.00109169,550.927,645.762,647.206,0.00109169,0.00108807
141.0,0.0031967,551.092,651.197,652.633,0.00252254,0.00251892
144.0,0.0023776,551.257,656.627,658.057,0.00234483,0.00234121
147.0,0.000858138,551.422,662.055,663.478,0.00149203,0.00148841
150.0,0.0024786,551.587,667.48,668.895,0.00138908,0.00138546
153.0,0.000894264,551.752,672.901,674.309,0.000841592,0.000837976
156.0,0.000435828,551.917,678.319,679.72,0.00114855,0.00114493
159.0,0.00325569,552.082,683.733,685.128,0.00265658,0.00265296
162.0,0.00361324,552.247,689.145,690.533,0.00361324,0.00360962
165.0,0.0035206,552.412,694.553,695.934,0.004006,0.00400239
168.0,0.00383162,552.577,699.958,701.332,0.00383162,0.00382801
171.0,0.00405346,552.742,705.36,706.727,0.00417828,0.00417467
174.0,0.00560208,552.907,710.758,712.118,0.00560208,0.00559847
177.0,0.00486519,553.072,716.154,717.507,0.00560186,0.00559825
180.0,0.00679807,553.237,721.546,722.892,0.00560186,0.00559825
183.0,0.00541197,553.402,726.935,728.274,0.00596686,0.00596325
186.0,0.00910522,553.567,732.32,733.652,0.00910149,0.00909788
189.0,0.0102764,553.732,737.703,739.028,0.00993227,0.00992866
192.0,0.0121176,553.897,743.082,744.4,0.0114771,0.0114735
195.0,0.0106092,554.062,748.458,749.769,0.0114771,0.0114735
198.0,0.0129513,554.227,753.831,755.135,0.0129513,0.0129477
201.0,0.0131135,554.392,759.201,760.498,0.0131135,0.0131099
204.0,0.0165522,554.557,764.567,765.858,0.0165522,0.0165486
207.0,0.0206033,554.722,769.93,771.214,0.0202037,0.0202001
210.0,0.0214124,554.887,775.29,776.567,0.0214124,0.0214088
213.0,0.0234696,555.052,780.647,781.917,0.0240632,0.0240596
216.0,0.0296863,555.217,786.001,787.264,0.0292084,0.0292048
219.0,0.028673,555.382,791.352,792.608,0.0292084,0.0292048
222.0,0.0334784,555.546,796.699,797.948,0.0334784,0.0334748
225.0,0.0397473,555.711,802.043,803.285,0.0397473,0.0397437
228.0,0.0423908,555.876,807.384,808.62,0.0423908,0.0423872
231.0,0.0467927,556.041,812.722,813.951,0.0467927,0.0467891
234.0,0.0506745,556.206,818.057,819.278,0.0506745,0.0506709
237.0,0.0545072,556.371,823.388,824.603,0.0545072,0.0545036
240.0,0.0593038,556.536,828.716,829.924,0.0593038,0.0593002
243.0,0.0629985,556.701,834.042,835.243,0.0628595,0.0628559
246.0,0.0626533,556.866,839.364,840.558,0.063561,0.0635574
249.0,0.0663468,557.031,844.682,845.87,0.0660983,0.0660947
252.0,0.062631,557.196,849.998,851.179,0.0632671,0.0632635
255.0,0.0603799,557.361,855.311,856.485,0.0603799,0.0603763
258.0,0.0551114,557.526,860.62,861.787,0.0551114,0.0551078
261.0,0.0532233,557.691,865.927,867.087,0.0532233,0.0532197
264.0,0.0491442,557.856,871.23,872.383,0.0476862,0.0476826
267.0,0.048494,558.021,876.53,877.676,0.048494,0.0484904
270.0,0.0629656,558.186,881.827,882.966,0.0629656,0.062962
273.0,0.0778358,558.351,887.12,888.253,0.0754904,0.0754868
276.0,0.0725503,558.516,892.411,893.537,0.0725503,0.0725467
279.0,0.0555356,558.681,897.698,898.818,0.0555356,0.055532
282.0,0.0266507,558.846,902.983,904.095,0.0266507,0.0266471
285.0,0.0103911,559.011,908.264,909.37,0.0103911,0.0103875
288.0,0.00779467,559.176,913.542,914.641,0.00779467,0.00779107
291.0,0.0078249,559.341,918.817,919.909,0.0078249,0.0078213
294.0,0.00577078,559.506,924.089,925.174,0.00567293,0.00566933
297.0,0.00390892,559.671,929.358,930.436,0.00390892,0.00390532
300.0,0.00412379,559.836,934.624,935.695,0.00412379,0.00412019
303.0,0.0015136,560.001,939.886,940.951,0.0015433,0.0015397
306.0,0.00359647,560.166,945.146,946.204,0.00359647,0.00359287
309.0,0.00136646,560.331,950.402,951.454,0.00288867,0.00288507
312.0,0.00120929,560.496,955.656,956.7,0.00143395,0.00143035
315.0,0.00231008,560.661,960.906,961.944,0.00207741,0.00207381
318.0,0.000690864,560.826,966.153,967.184,0.000690864,0.000687268
321.0,0.000468833,560.991,971.397,972.421,0.000468833,0.000465237
324.0,0.00108848,561.156,976.638,977.655,0.00189932,0.00189572
327.0,0.00677101,561.321,981.876,982.887,0.00436059,0.00435699
330.0,0.00333904,561.486,987.111,988.115,0.00339478,0.00339119
333.0,0.00128903,561.651,992.342,993.34,0.00290044,0.00289685
336.0,0.00426014,561.816,997.571,998.562,0.00428677,0.00428318
339.0,0.00439944,561.981,1002.8,1003.78,0.00439944,0.00439585
342.0,0.00493746,562.146,1008.02,1009,0.00493746,0.00493387
345.0,0.00391789,562.311,1013.24,1014.21,0.00536336,0.00535977
348.0,0.00640411,562.476,1018.45,1019.42,0.00640411,0.00640052
351.0,0.0103749,562.641,1023.67,1024.63,0.0103749,0.0103713
354.0,0.0171808,562.806,1028.88,1029.83,0.0171808,0.0171772
357.0,0.020304,562.971,1034.09,1035.03,0.0193738,0.0193702
360.0,0.0165879,563.136,1039.29,1040.23,0.0165879,0.0165843
363.0,0.00838839,563.301,1044.49,1045.42,0.00838839,0.0083848
366.0,0.00476596,563.466,1049.69,1050.61,0.00655159,0.006548
369.0,0.00652544,563.631,1054.88,1055.8,0.00554269,0.0055391
372.0,0.00631906,563.796,1060.08,1060.99,0.00609084,0.00608725
375.0,0.00445497,563.961,1065.27,1066.17,0.00445497,0.00445138
378.0,0.00300839,564.126,1070.45,1071.35,0.00386164,0.00385805
381.0,0.00565324,564.291,1075.63,1076.52,0.0048215,0.00481791
384.0,0.00348279,564.456,1080.81,1081.7,0.00348279,0.0034792
387.0,0.00330162,564.621,1085.99,1086.87,0.0025532,0.00254961
390.0,0.00406967,564.786,1091.16,1092.03,0.00389651,0.00389292
393.0,0.00271601,564.951,1096.34,1097.2,0.00375648,0.00375289
396.0,0.00517348,565.116,1101.5,1102.36,0.00375648,0.00375289
399.0,0.00500909,565.281,1106.67,1107.52,0.00500909,0.0050055
402.0,0.00442373,565.446,1111.83,1112.67,0.00442373,0.00442014
405.0,0.00209058,565.611,1116.99,1117.82,0.00209058,0.00208699
408.0,0.00181986,565.776,1122.14,1122.97,0.00181986,0.00181627
411.0,0.00270157,565.941,1127.3,1128.12,0.00317043,0.00316684
414.0,0.00557657,566.106,1132.45,1133.26,0.00466603,0.00466244
417.0,0.00311436,566.271,1137.59,1138.4,0.00311436,0.00311078
420.0,0.00602897,566.436,1142.74,1143.54,0.00528751,0.00528393
423.0,0.00215708,566.601,1147.88,1148.67,0.00294741,0.00294383
426.0,0.00326604,566.766,1153.02,1153.81,0.00326604,0.00326246
429.0,0.00483637,566.931,1158.15,1158.93,0.00444903,0.00444545
432.0,0.00383127,567.096,1163.28,1164.06,0.00383127,0.00382769
435.0,0.00325615,567.261,1168.41,1169.18,0.00325615,0.00325257
438.0,0.0,567.426,1173.54,1174.3,0.000616807,0.000613225
441.0,0.00721603,567.591,1178.66,1179.42,0.00527502,0.00527144
444.0,0.000734301,567.756,1183.78,1184.53,0.00410676,0.00410318
447.0,0.00507437,567.921,1188.9,1189.64,0.00410676,0.00410318
450.0,0.00216914,568.086,1194.01,1194.75,0.00374086,0.00373728
453.0,0.00682961,568.251,1199.12,1199.85,0.00494923,0.00494565
456.0,0.00547462,568.416,1204.23,1204.95,0.00547462,0.00547104
459.0,0.00609506,568.58,1209.33,1210.05,0.00609506,0.00609148
462.0,0.00723177,568.745,1214.44,1215.15,0.00562632,0.00562274
465.0,0.00459384,568.91,1219.53,1220.24,0.00459384,0.00459026
468.0,0.00618999,569.075,1224.63,1225.33,0.00552146,0.00551788
471.0,0.00420498,569.24,1229.72,1230.42,0.00503176,0.00502818
474.0,0.00506826,569.405,1234.81,1235.5,0.00503176,0.00502818
477.0,0.00293484,569.57,1239.9,1240.58,0.00293484,0.00293126
480.0,0.000944165,569.735,1244.99,1245.66,0.000944165,0.000940587
483.0,0.0,569.9,1250.07,1250.73,0.00203148,0.0020279
486.0,0.00329352,570.065,1255.14,1255.8,0.00255165,0.00254807
489.0,0.00384413,570.23,1260.22,1260.87,0.00384413,0.00384055
492.0,0.00293368,570.395,1265.29,1265.94,0.00330764,0.00330406
495.0,0.00400297,570.56,1270.36,1271,0.00380697,0.00380339
498.0,0.00345189,570.725,1275.43,1276.06,0.00272171,0.00271813
501.0,0.000375838,570.89,1280.49,1281.12,0.00086738,0.000863804
504.0,0.00133268,571.055,1285.55,1286.17,0.00133268,0.0013291
507.0,0.00288416,571.22,1290.61,1291.22,0.00288416,0.00288058
510.0,0.00103484,571.385,1295.67,1296.27,0.00223055,0.00222697
513.0,0.00684654,571.55,1300.72,1301.32,0.00608227,0.0060787
516.0,0.00710989,571.715,1305.77,1306.36,0.00710989,0.00710632
519.0,0.0179928,571.88,1310.81,1311.4,0.0179928,0.0179892
522.0,0.0412663,572.045,1315.86,1316.44,0.0412663,0.0412627
525.0,0.0544285,572.21,1320.9,1321.47,0.0544285,0.0544249
528.0,0.0533774,572.375,1325.94,1326.5,0.0533774,0.0533738
531.0,0.03274,572.54,1330.97,1331.53,0.03274,0.0327364
534.0,0.00890789,572.705,1336,1336.56,0.00890789,0.00890432
537.0,0.0,572.87,1341.03,1341.58,0.0,-3.57241e-06
540.0,0.0,573.035,1346.06,1346.6,0.0,-3.57215e-06
543.0,0.00185647,573.2,1351.08,1351.61,0.00108817,0.0010846
546.0,0.00206916,573.365,1356.1,1356.63,0.000865926,0.000862354
549.0,0.0,573.53,1361.12,1361.64,0.0,-3.57144e-06
552.0,0.005354,573.695,1366.13,1366.65,0.00462926,0.00462569
555.0,0.000851164,573.86,1371.14,1371.65,0.00298133,0.00297776
558.0,0.00422548,574.025,1376.15,1376.65,0.00330243,0.00329886
561.0,0.00215676,574.19,1381.16,1381.65,0.00348278,0.00347921
564.0,0.00487295,574.355,1386.16,1386.65,0.00522178,0.00521821
567.0,0.007539,574.52,1391.16,1391.64,0.007539,0.00753543
570.0,0.00976419,574.685,1396.16,1396.63,0.0100184,0.0100148
573.0,0.0188033,574.85,1401.15,1401.62,0.0188033,0.0187997
576.0,0.020716,575.015,1406.14,1406.61,0.0207758,0.0207722
579.0,0.0211479,575.18,1411.13,1411.59,0.0212454,0.0212418
582.0,0.0163051,575.345,1416.12,1416.57,0.0163051,0.0163015
585.0,0.00621698,575.51,1421.1,1421.54,0.00621698,0.00621341
588.0,0.0,575.675,1426.08,1426.52,0.000399405,0.000395836
591.0,0.00274475,575.84,1431.06,1431.49,0.00274475,0.00274118
594.0,0.00659712,576.005,1436.03,1436.46,0.00540345,0.00539988
597.0,0.00727058,576.17,1441,1441.42,0.00727058,0.00726701
600.0,0.00713122,576.335,1445.97,1446.38,0.00781206,0.00780849
603.0,0.00813667,576.5,1450.94,1451.34,0.00678189,0.00677832
606.0,0.00936125,576.665,1455.9,1456.3,0.00740451,0.00740094
609.0,0.00668173,576.83,1460.86,1461.25,0.00668173,0.00667816
612.0,0.0,576.995,1465.82,1466.2,0.000237659,0.000234092
615.0,0.00230197,577.16,1470.77,1471.15,0.000237659,0.000234092
618.0,0.0,577.325,1475.72,1476.1,0.000646373,0.000642806
621.0,0.00313497,577.49,1480.67,1481.04,0.00170529,0.00170172
624.0,0.00107194,577.655,1485.62,1485.98,0.00107194,0.00106837
627.0,0.00223004,577.82,1490.56,1490.91,0.00134594,0.00134237
630.0,0.00218985,577.985,1495.5,1495.85,0.00218985,0.00218628
633.0,0.00700018,578.15,1500.44,1500.78,0.00525334,0.00524977
636.0,0.00442441,578.315,1505.37,1505.71,0.00442441,0.00442084
639.0,0.00866941,578.48,1510.3,1510.63,0.0083229,0.00831933
642.0,0.00647719,578.645,1515.23,1515.55,0.00627528,0.00627171
645.0,0.00356838,578.81,1520.16,1520.47,0.00356838,0.00356481
648.0,0.00248642,578.975,1525.08,1525.39,0.00248642,0.00248285
651.0,0.00333246,579.14,1530,1530.31,0.00337895,0.00337538
654.0,0.0018142,579.305,1534.92,1535.22,0.00260761,0.00260404
657.0,0.00261578,579.47,1539.83,1540.13,0.00260761,0.00260404
660.0,7.28618e-05,579.635,1544.75,1545.03,0.00118227,0.00117871
663.0,0.00112755,579.8,1549.65,1549.93,0.00150673,0.00150317
666.0,0.00205356,579.965,1554.56,1554.83,0.00288962,0.00288606
669.0,0.00860895,580.13,1559.47,1559.73,0.00860895,0.00860539
672.0,0.00951892,580.295,1564.37,1564.63,0.00951892,0.00951536
675.0,0.0110005,580.46,1569.26,1569.52,0.00761527,0.00761171
678.0,0.00636953,580.625,1574.16,1574.41,0.00636953,0.00636597
681.0,0.00346998,580.79,1579.05,1579.29,0.00346998,0.00346642
684.0,0.00271818,580.955,1583.94,1584.18,0.00271818,0.00271462
687.0,0.0,581.12,1588.83,1589.06,0.000455863,0.000452301
690.0,0.00217893,581.285,1593.71,1593.94,0.000889986,0.000886425
693.0,0.0,581.45,1598.59,1598.81,0.000199893,0.000196332
696.0,0.0021929,581.614,1603.47,1603.68,0.00192599,0.00192243
699.0,0.00108252,581.779,1608.35,1608.55,0.0020648,0.00206124
702.0,0.00414794,581.944,1613.22,1613.42,0.0020648,0.00206124
705.0,0.00123821,582.109,1618.09,1618.28,0.00123821,0.00123465
708.0,0.00612213,582.274,1622.96,1623.15,0.00498342,0.00497986
711.0,0.00498396,582.439,1627.83,1628,0.00447051,0.00446695
714.0,0.000130115,582.604,1632.69,1632.86,0.00304053,0.00303697
717.0,0.00448436,582.769,1637.55,1637.71,0.00400475,0.00400119
720.0,0.00142362,582.934,1642.4,1642.56,0.00142362,0.00142006
723.0,5.57908e-05,583.099,1647.26,1647.41,5.57908e-05,5.22349e-05
726.0,0.000401694,583.264,1652.11,1652.26,0.000632455,0.0006289
729.0,0.00386018,583.429,1656.96,1657.1,0.00389089,0.00388734
732.0,0.00564773,583.594,1661.8,1661.94,0.00564773,0.00564418
735.0,0.0107273,583.759,1666.65,1666.77,0.00807325,0.0080697
738.0,0.00289305,583.924,1671.49,1671.61,0.00289305,0.0028895
741.0,0.00468315,584.089,1676.32,1676.44,0.00418746,0.00418391
744.0,0.00270056,584.254,1681.16,1681.27,0.00418746,0.00418391
747.0,0.00184996,584.419,1685.99,1686.09,0.0024454,0.00244185
750.0,0.000431305,584.584,1690.82,1690.92,0.00108408,0.00108053
753.0,0.0,584.749,1695.65,1695.74,0.00109798,0.00109443
756.0,0.00349847,584.914,1700.47,1700.55,0.0016344,0.00163085
759.0,0.00208458,585.079,1705.29,1705.37,0.00158437,0.00158082
762.0,0.000124739,585.244,1710.11,1710.18,0.000765131,0.000761584
765.0,0.00120505,585.409,1714.92,1714.99,0.00120505,0.0012015
768.0,0.0022352,585.574,1719.74,1719.8,0.00235525,0.0023517
771.0,0.000499,585.739,1724.55,1724.6,0.00071584,0.000712295
774.0,0.00577706,585.904,1729.35,1729.4,0.00577706,0.00577352
777.0,0.00636956,586.069,1734.16,1734.2,0.00585482,0.00585128
780.0,0.000353844,586.234,1738.96,1739,0.00240759,0.00240405
783.0,0.00348541,586.399,1743.76,1743.79,0.00253519,0.00253165
786.0,0.00351435,586.564,1748.56,1748.58,0.00329068,0.00328714
789.0,0.00358893,586.729,1753.35,1753.37,0.00362358,0.00362004
792.0,0.000961175,586.894,1758.14,1758.15,0.000961175,0.000957634
795.0,0.001204,587.059,1762.93,1762.94,0.001204,0.00120046
798.0,4.13179e-05,587.224,1767.72,1767.72,0.00139242,0.00138888
801.0,0.00359162,587.389,1772.5,1772.49,0.00271125,0.00270771
804.0,0.00167594,587.554,1777.28,1777.27,0.00186982,0.00186628
807.0,0.0,587.719,1782.06,1782.04,0.000730922,0.000727384
810.0,0.00682521,587.884,1786.83,1786.81,0.00492303,0.00491949
813.0,0.00163069,588.049,1791.61,1791.57,0.00163069,0.00162715
816.0,0.00147297,588.214,1796.38,1796.34,0.000862294,0.000858759
819.0,0.0,588.379,1801.14,1801.1,0.000354009,0.000350475
822.0,0.00520826,588.544,1805.91,1805.86,0.00515397,0.00515044
825.0,0.0031875,588.709,1810.67,1810.61,0.0031875,0.00318397
828.0,0.00473902,588.874,1815.43,1815.37,0.00368951,0.00368598
831.0,0.00221429,589.039,1820.19,1820.12,0.00259024,0.00258671
834.0,0.00268543,589.204,1824.94,1824.86,0.00268543,0.0026819
837.0,0.00247494,589.369,1829.69,1829.61,0.00247494,0.00247141
840.0,0.0,589.534,1834.44,1834.35,0.000859846,0.000856318
843.0,0.00383548,589.699,1839.18,1839.09,0.00324125,0.00323772
846.0,0.00457503,589.864,1843.93,1843.83,0.00457503,0.0045715
849.0,0.00286181,590.029,1848.67,1848.56,0.00286181,0.00285828
852.0,0.00395501,590.194,1853.41,1853.29,0.00535924,0.00535571
855.0,0.00221186,590.359,1858.14,1858.02,0.00303234,0.00302882
858.0,0.00346174,590.524,1862.87,1862.75,0.00234973,0.00234621
861.0,0.00271848,590.689,1867.6,1867.47,0.00271848,0.00271496
864.0,0.00512558,590.854,1872.33,1872.2,0.00473648,0.00473296
867.0,0.00233769,591.019,1877.06,1876.91,0.00290804,0.00290452
870.0,0.0036598,591.184,1881.78,1881.63,0.0036598,0.00365628
873.0,0.000892067,591.349,1886.5,1886.34,0.000892067,0.000888548
876.0,0.000455863,591.514,1891.21,1891.05,0.000455863,0.000452345
879.0,0.00250121,591.679,1895.93,1895.76,0.00250121,0.00249769
882.0,0.00796684,591.844,1900.64,1900.47,0.006465,0.00646148
885.0,0.00600978,592.009,1905.35,1905.17,0.00600978,0.00600626
888.0,0.0038082,592.174,1910.05,1909.87,0.00236505,0.00236153
891.0,0.0,592.339,1914.76,1914.57,0.0,-3.51438e-06
894.0,0.000676356,592.504,1919.46,1919.26,0.000676356,0.000672842
897.0,0.00130272,592.669,1924.16,1923.96,0.00255511,0.0025516
900.0,0.00435466,592.834,1928.85,1928.64,0.00368208,0.00367857
903.0,0.00252874,592.999,1933.55,1933.33,0.00328196,0.00327845
906.0,0.00499089,593.164,1938.24,1938.02,0.00327487,0.00327136
909.0,0.000434673,593.329,1942.93,1942.7,0.00133931,0.0013358
912.0,0.00339793,593.494,1947.61,1947.38,0.00339793,0.00339442
915.0,0.00105892,593.659,1952.29,1952.05,0.00105892,0.00105541
918.0,0.0,593.824,1956.97,1956.73,0.0,-3.50596e-06
921.0,0.00441251,593.989,1961.65,1961.4,0.0027757,0.00277219
924.0,0.00144345,594.154,1966.33,1966.07,0.00144345,0.00143995
927.0,0.00131697,594.319,1971,1970.73,0.00131697,0.00131347
930.0,0.00230144,594.484,1975.67,1975.4,0.00230144,0.00229794
933.0,0.00162955,594.648,1980.33,1980.06,0.00156901,0.00156551
936.0,0.0024524,594.813,1985,1984.72,0.00124632,0.00124282
939.0,0.00311485,594.978,1989.66,1989.37,0.00311485,0.00311135
942.0,0.00264834,595.143,1994.32,1994.03,0.00264834,0.00264484
945.0,0.0,595.308,1998.98,1998.68,0.0,-3.49778e-06
948.0,0.00117835,595.473,2003.63,2003.33,0.0,-3.49691e-06
951.0,0.00196867,595.638,2008.28,2007.97,0.00103264,0.00102914
954.0,0.0,595.803,2012.93,2012.62,0.00103264,0.00102914
957.0,0.000246481,595.968,2017.58,2017.26,0.000246481,0.000242987
960.0,0.00151231,596.133,2022.22,2021.89,0.000641119,0.000637625
963.0,0.00420312,596.298,2026.86,2026.53,0.00228878,0.00228529
966.0,0.0,596.463,2031.5,2031.16,0.00111954,0.00111605
969.0,0.00166648,596.628,2036.14,2035.79,0.00155209,0.0015486
972.0,0.00355986,596.793,2040.77,2040.42,0.00230894,0.00230545
975.0,0.00101006,596.958,2045.4,2045.05,0.00128908,0.00128559
978.0,0.0,597.123,2050.03,2049.67,0.000169375,0.000165886
981.0,0.00110895,597.288,2054.66,2054.29,0.000913357,0.000909869
984.0,0.00275965,597.453,2059.28,2058.91,0.00275965,0.00275616
987.0,0.00065104,597.618,2063.9,2063.52,0.00065104,0.000647554
990.0,0.0,597.783,2068.52,2068.13,0.0,-3.48555e-06
993.0,0.0,597.948,2073.14,2072.74,0.0,-3.4848e-06
996.0,0.00290689,598.113,2077.75,2077.35,0.00174153,0.00173805
999.0,0.000591493,598.278,2082.36,2081.95,0.000591493,0.00058801
1002.0,0.00200316,598.443,2086.97,2086.56,0.00200316,0.00199968
1005.0,0.0,598.608,2091.57,2091.16,3.81476e-06,3.32886e-07
1008.0,0.00151459,598.773,2096.18,2095.75,3.81476e-06,3.336e-07
1011.0,4.25686e-05,598.938,2100.78,2100.35,0.00131264,0.00130916
1014.0,0.000577149,599.103,2105.38,2104.94,0.000577149,0.000573669
1017.0,0.000189975,599.268,2109.97,2109.53,0.000189975,0.000186496
1020.0,0.000383021,599.433,2114.56,2114.12,0.000720178,0.0007167
1023.0,0.00371498,599.598,2119.15,2118.7,0.00254989,0.00254641
1026.0,0.00109952,599.763,2123.74,2123.28,0.00148176,0.00147828
1029.0,0.00208193,599.928,2128.33,2127.86,0.000934161,0.000930685
1032.0,0.0,600.093,2132.91,2132.44,0.000306632,0.000303157
1035.0,0.0,600.258,2137.49,2137.01,2.51774e-05,2.17033e-05
1038.0,0.0,600.423,2142.07,2141.59,2.51774e-05,2.17041e-05
1041.0,0.000418707,600.588,2146.64,2146.15,0.000835578,0.000832106
1044.0,0.00152981,600.753,2151.22,2150.72,0.000647295,0.000643823
1047.0,0.00124955,600.918,2155.79,2155.29,0.000298445,0.000294974
1050.0,0.000893034,601.083,2160.35,2159.85,0.000893034,0.000889564
1053.0,0.00291502,601.248,2164.92,2164.41,0.001937,0.00193353
1056.0,6.48508e-06,601.413,2169.48,2168.96,6.48508e-06,3.01655e-06
1059.0,0.00201077,601.578,2174.04,2173.52,0.000253079,0.000249611
1062.0,0.00040933,601.743,2178.6,2178.07,0.00040933,0.000405863
1065.0,0.0,601.908,2183.16,2182.62,2.327e-05,1.98038e-05
1068.0,0.0011915,602.073,2187.71,2187.17,0.000983279,0.000979814
1071.0,0.00113654,602.238,2192.26,2191.71,0.00113654,0.00113308
1074.0,0.0,602.403,2196.81,2196.25,0.000261945,0.000258481
1077.0,0.0009617,602.568,2201.35,2200.79,0.0009617,0.000958237
1080.0,0.00302819,602.733,2205.89,2205.33,0.00294265,0.00293919
1083.0,0.00523755,602.898,2210.43,2209.86,0.00289488,0.00289142
1086.0,0.00286105,603.063,2214.97,2214.4,0.00286105,0.00285759
1089.0,0.0,603.228,2219.51,2218.92,0.000105976,0.000102516
1092.0,0.0,603.393,2224.04,2223.45,0.000589532,0.000586073
1095.0,0.000910241,603.558,2228.57,2227.98,0.000910241,0.000906783
1098.0,0.00281186,603.723,2233.1,2232.5,0.00189603,0.00189257
1101.0,0.000872862,603.888,2237.62,2237.02,0.00155591,0.00155245
1104.0,0.00134571,604.053,2242.15,2241.54,0.0026134,0.00260994
1107.0,0.0,604.218,2246.67,2246.05,0.0,-3.45513e-06
1110.0,0.000804055,604.383,2251.19,2250.56,0.000804055,0.000800601
1113.0,0.00546657,604.548,2255.7,2255.07,0.00546657,0.00546312
1116.0,0.00485263,604.713,2260.21,2259.58,0.00485263,0.00484918
1119.0,0.0051107,604.878,2264.72,2264.08,0.00386239,0.00385894
1122.0,0.00175275,605.043,2269.23,2268.59,0.00175275,0.0017493
1125.0,0.000164797,605.208,2273.74,2273.09,0.000164797,0.000161346
1128.0,0.00195873,605.373,2278.24,2277.58,0.00195873,0.00195528
1131.0,0.0,605.538,2282.74,2282.08,0.00026894,0.000265491
1134.0,0.000327224,605.703,2287.24,2286.57,0.000327224,0.000323775
1137.0,0.00185516,605.868,2291.74,2291.06,0.00174754,0.00174409
1140.0,0.00216428,606.033,2296.23,2295.55,0.00210714,0.00210369
1143.0,0.00254026,606.198,2300.72,2300.03,0.0018593,0.00185585
1146.0,0.0012062,606.363,2305.21,2304.52,0.0012062,0.00120275
1149.0,0.000826276,606.528,2309.7,2309,0.000833267,0.000829822
1152.0,0.0,606.693,2314.18,2313.47,0.000973589,0.000970145
1155.0,0.00536644,606.858,2318.66,2317.95,0.00375654,0.0037531
1158.0,0.00289919,607.023,2323.14,2322.42,0.00371342,0.00370998
1161.0,0.00396056,607.188,2327.62,2326.89,0.00345631,0.00345287
1164.0,3.7413e-06,607.353,2332.09,2331.36,3.7413e-06,2.99587e-07
1167.0,0.00136038,607.518,2336.56,2335.83,0.000658004,0.000654563
1170.0,0.000436566,607.682,2341.03,2340.29,0.00174326,0.00173982
1173.0,0.00463844,607.847,2345.5,2344.75,0.00357328,0.00356984
1176.0,0.00200834,608.012,2349.96,2349.21,0.00200834,0.0020049
1179.0,0.0,608.177,2354.42,2353.67,0.000123451,0.000120013
1182.0,0.00145925,608.342,2358.88,2358.12,0.00145925,0.00145581
1185.0,0.0,608.507,2363.34,2362.57,0.0,-3.43722e-06
1188.0,0.00147697,608.672,2367.79,2367.02,0.00147697,0.00147353
1191.0,0.00110486,608.837,2372.25,2371.47,0.000167145,0.000163709
1194.0,0.00151139,609.002,2376.7,2375.91,0.00151139,0.00150795
1197.0,0.00370512,609.167,2381.14,2380.35,0.0021591,0.00215567
1200.0,0.0,609.332,2385.59,2384.79,0.000139239,0.000135805
1203.0,0.000218204,609.497,2390.03,2389.23,0.000181698,0.000178264
1206.0,0.000102301,609.662,2394.47,2393.66,0.000121812,0.000118379
1209.0,0.00248206,609.827,2398.91,2398.09,0.000121812,0.000118379
1212.0,0.0,609.992,2403.34,2402.52,0.000341365,0.000337933
1215.0,0.00129756,610.157,2407.78,2406.95,0.000649977,0.000646546
1218.0,0.000428834,610.322,2412.21,2411.38,0.000428834,0.000425403
1221.0,0.00402103,610.487,2416.63,2415.8,0.00402103,0.0040176
1224.0,0.0011328,610.652,2421.06,2420.22,0.0011328,0.00112937
1227.0,0.0,610.817,2425.48,2424.64,0.0,-3.42893e-06
1230.0,0.000540551,610.982,2429.9,2429.05,0.000540551,0.000537123
1233.0,0.00207385,611.147,2434.32,2433.46,0.00207385,0.00207042
1236.0,0.00228893,611.312,2438.74,2437.87,0.00153589,0.00153246
1239.0,0.0,611.477,2443.15,2442.28,0.000785466,0.000782039
1242.0,0.0016138,611.642,2447.56,2446.69,0.000724387,0.000720961
1245.0,0.000277714,611.807,2451.97,2451.09,0.000724387,0.000720961
1248.0,0.00425552,611.972,2456.38,2455.49,0.00233345,0.00233003
1251.0,0.000477607,612.137,2460.78,2459.89,0.000765068,0.000761644
1254.0,0.00400498,612.302,2465.19,2464.29,0.00337296,0.00336954
1257.0,0.00176809,612.467,2469.59,2468.68,0.00176809,0.00176467
1260.0,0.0,612.632,2473.98,2473.07,0.0,-3.42286e-06
1263.0,0.00275406,612.797,2478.38,2477.46,0.00164548,0.00164206
1266.0,0.00309138,612.962,2482.77,2481.85,0.00142009,0.00141667
1269.0,0.00156611,613.127,2487.16,2486.23,0.00156611,0.00156269
1272.0,0.00085902,613.292,2491.55,2490.61,0.00085902,0.000855599
1275.0,0.000707226,613.457,2495.93,2494.99,3.55202e-05,3.20999e-05
1278.0,0.000939302,613.622,2500.32,2499.37,0.000939302,0.000935882
1281.0,0.0,613.787,2504.7,2503.75,0.000130083,0.000126664
1284.0,0.00122702,613.952,2509.07,2508.12,0.00133268,0.00132926
1287.0,0.00441196,614.117,2513.45,2512.49,0.0028064,0.00280298
1290.0,0.00189446,614.282,2517.82,2516.86,0.00189446,0.00189104
1293.0,0.0,614.447,2522.19,2521.22,0.000521079,0.000517662
1296.0,0.00258299,614.612,2526.56,2525.59,0.00232069,0.00231727
1299.0,0.00232876,614.777,2530.93,2529.95,0.00232069,0.00231727
1302.0,0.0,614.942,2535.29,2534.3,0.0,-3.41524e-06
1305.0,0.00140996,615.107,2539.66,2538.66,0.00118974,0.00118633
1308.0,0.000478048,615.272,2544.02,2543.01,0.000537162,0.000533748
1311.0,0.00104441,615.437,2548.37,2547.37,0.000613127,0.000609713
1314.0,0.0,615.602,2552.73,2551.72,0.0,-3.4132e-06
1317.0,0.0,615.767,2557.08,2556.06,0.0,-3.41271e-06
1320.0,0.00117792,615.932,2561.43,2560.41,0.00155577,0.00155236
1323.0,0.00341075,616.097,2565.78,2564.75,0.00341075,0.00340734
1326.0,0.00529825,616.262,2570.12,2569.09,0.00439766,0.00439425
1329.0,0.0,616.427,2574.47,2573.43,0.0,-3.41083e-06
1332.0,0.0,616.592,2578.81,2577.76,0.0,-3.41038e-06
1335.0,0.000707837,616.757,2583.15,2582.09,0.000707837,0.000704427
1338.0,0.00137224,616.922,2587.48,2586.42,0.00120758,0.00120417
1341.0,0.0,617.087,2591.82,2590.75,0.000157168,0.000153759
1344.0,0.00109968,617.252,2596.15,2595.08,0.000157168,0.000153759
1347.0,0.000104736,617.417,2600.48,2599.4,0.000104736,0.000101328
1350.0,0.0,617.582,2604.8,2603.72,0.000399405,0.000395997
1353.0,0.00604496,617.747,2609.13,2608.04,0.00499195,0.00498854
1356.0,0.0059461,617.912,2613.45,2612.36,0.0059461,0.00594269
1359.0,0.00182679,618.077,2617.77,2616.67,0.00182679,0.00182338
1362.0,0.000356107,618.242,2622.09,2620.99,0.0,-3.40647e-06
1365.0,0.0,618.407,2626.4,2625.3,0.0,-3.40613e-06
1368.0,0.0,618.572,2630.72,2629.6,0.000177195,0.000173789
1371.0,0.00300262,618.737,2635.03,2633.91,0.00226172,0.00225831
1374.0,0.00125125,618.902,2639.34,2638.21,0.00125125,0.00124784
1377.0,0.00159255,619.067,2643.64,2642.51,0.000843593,0.000840188
1380.0,0.0,619.232,2647.95,2646.81,0.0,-3.40458e-06
1383.0,0.0,619.397,2652.25,2651.11,0.000244907,0.000241503
1386.0,0.00258068,619.562,2656.55,2655.4,0.00258068,0.00257728
1389.0,0.00145813,619.727,2660.84,2659.69,0.00145813,0.00145473
1392.0,0.000193885,619.892,2665.14,2663.98,0.000193885,0.000190481
1395.0,0.00204341,620.057,2669.43,2668.27,0.00204341,0.00204001
1398.0,0.0041153,620.222,2673.72,2672.55,0.0041721,0.0041687
1401.0,0.00345236,620.387,2678.01,2676.84,0.00345236,0.00344896
1404.0,0.00113969,620.551,2682.29,2681.12,0.00113969,0.00113629
1407.0,0.00018883,620.716,2686.58,2685.39,0.00018883,0.000185428
1410.0,0.00274996,620.881,2690.86,2689.67,0.00125855,0.00125515
1413.0,0.00271632,621.046,2695.14,2693.94,0.00244678,0.00244338
1416.0,0.00297336,621.211,2699.41,2698.21,0.00244678,0.00244338
1419.0,0.000368718,621.376,2703.69,2702.48,0.000368718,0.000365317
1422.0,0.000996538,621.541,2707.96,2706.75,0.00156962,0.00156622
1425.0,0.00126035,621.706,2712.23,2711.01,0.000985026,0.000981625
1428.0,0.0,621.871,2716.5,2715.27,0.000296788,0.000293387
1431.0,0.00456027,622.036,2720.76,2719.53,0.00240289,0.00239949
1434.0,0.0,622.201,2725.03,2723.79,0.00161654,0.00161314
1437.0,0.00363827,622.366,2729.29,2728.05,0.00186906,0.00186566
1440.0,0.0,622.531,2733.54,2732.3,0.00126848,0.00126508
1443.0,0.00189371,622.696,2737.8,2736.55,0.00149661,0.00149321
1446.0,0.00460087,622.861,2742.05,2740.8,0.00344588,0.00344248
1449.0,0.000305243,623.026,2746.31,2745.04,0.000305243,0.000301843
1452.0,0.0,623.191,2750.56,2749.29,0.0,-3.39953e-06
1455.0,0.00364811,623.356,2754.8,2753.53,0.00149552,0.00149212
1458.0,0.00107131,623.521,2759.05,2757.77,0.00107131,0.00106791
1461.0,0.0,623.686,2763.29,2762.01,0.000205958,0.000202559
1464.0,0.00610728,623.851,2767.53,2766.24,0.0015824,0.001579
1467.0,0.0,624.016,2771.77,2770.47,0.000939193,0.000935794
1470.0,0.00228949,624.181,2776,2774.7,0.00109128,0.00108788
1473.0,0.000963026,624.346,2780.24,2778.93,0.00109128,0.00108788
1476.0,0.00302078,624.511,2784.47,2783.16,0.00349526,0.00349186
1479.0,0.00279273,624.676,2788.7,2787.38,0.00279273,0.00278933
1482.0,0.00111675,624.841,2792.93,2791.6,0.00111675,0.00111335
1485.0,0.0,625.006,2797.15,2795.82,0.000487018,0.00048362
1488.0,0.00204402,625.171,2801.37,2800.04,0.00139016,0.00138676
1491.0,0.00143069,625.336,2805.59,2804.25,0.00143069,0.00142729
1494.0,0.0,625.501,2809.81,2808.47,0.0,-3.3983e-06
1497.0,0.0,625.666,2814.03,2812.68,0.0,-3.39826e-06
1500.0,0.000141432,625.831,2818.24,2816.89,0.000141432,0.000138034
1503.0,0.00243422,625.996,2822.45,2821.09,0.000782791,0.000779393
1506.0,0.0,626.161,2826.66,2825.3,0.000782791,0.000779393
1509.0,0.000808439,626.326,2830.87,2829.5,0.00039408,0.000390682
1512.0,0.00248714,626.491,2835.07,2833.7,0.000874301,0.000870903
1515.0,0.00188025,626.656,2839.27,2837.89,0.00188025,0.00187685
1518.0,0.0,626.821,2843.48,2842.09,9.87554e-05,9.53575e-05
1521.0,0.0016902,626.986,2847.67,2846.28,0.000795758,0.00079236
1524.0,0.0,627.151,2851.87,2850.47,0.000134975,0.000131577
1527.0,0.0014957,627.316,2856.06,2854.66,0.000189212,0.000185814
1530.0,0.000553624,627.481,2860.25,2858.85,0.000696449,0.000693051
1533.0,0.000459322,627.646,2864.44,2863.03,0.000459322,0.000455924
1536.0,0.0,627.811,2868.63,2867.21,0.0,-3.39758e-06
1539.0,0.0042444,627.976,2872.82,2871.39,0.00347799,0.00347459
1542.0,0.000679995,628.141,2877,2875.57,0.00167236,0.00166896
1545.0,0.00414821,628.306,2881.18,2879.74,0.00343197,0.00342857
1548.0,0.0,628.471,2885.36,2883.92,9.91836e-06,6.52085e-06
1551.0,0.000107576,628.636,2889.53,2888.09,9.91836e-06,6.52085e-06
1554.0,0.00257666,628.801,2893.71,2892.26,0.00216482,0.00216142
1557.0,0.00472958,628.966,2897.88,2896.42,0.00409892,0.00409552
1560.0,0.00260363,629.131,2902.05,2900.59,0.00260363,0.00260023
1563.0,0.000555534,629.296,2906.21,2904.75,0.000585893,0.000582495
1566.0,0.0,629.461,2910.38,2908.91,0.0,-3.39751e-06
1569.0,0.000146868,629.626,2914.54,2913.06,0.000146868,0.000143471
1572.0,0.00339508,629.791,2918.7,2917.22,0.00293873,0.00293533
1575.0,0.00294015,629.956,2922.86,2921.37,0.00293873,0.00293533
1578.0,0.000687037,630.121,2927.02,2925.52,0.000687037,0.00068364
1581.0,0.000844877,630.286,2931.17,2929.67,0.000844877,0.00084148
1584.0,0.0,630.451,2935.32,2933.82,0.0,-3.39724e-06
1587.0,0.000788128,630.616,2939.47,2937.96,0.000788128,0.000784731
1590.0,0.00162461,630.781,2943.62,2942.11,0.00136078,0.00135738
1593.0,0.000327687,630.946,2947.77,2946.25,0.000327687,0.00032429
1596.0,0.00175813,631.111,2951.91,2950.38,0.00126653,0.00126313
1599.0,0.00167921,631.276,2956.05,2954.52,0.00232174,0.00231834
1602.0,0.0134302,631.441,2960.19,2958.65,0.0134302,0.0134268
1605.0,0.0321572,631.606,2964.33,2962.79,0.0321572,0.0321538
1608.0,0.0391267,631.771,2968.46,2966.92,0.0391267,0.0391233
1611.0,0.0411321,631.936,2972.6,2971.04,0.0411321,0.0411287
1614.0,0.0335692,632.101,2976.73,2975.17,0.0335692,0.0335658
1617.0,0.0146322,632.266,2980.85,2979.29,0.0146322,0.0146288
1620.0,0.000789336,632.431,2984.98,2983.41,0.000789336,0.000785939
1623.0,0.0,632.596,2989.1,2987.53,0.0,-3.39725e-06
1626.0,0.0,632.761,2993.23,2991.65,0.0,-3.39729e-06
1629.0,0.000782025,632.926,2997.35,2995.76,0.000782025,0.000778628
1632.0,0.00915308,633.091,3001.46,2999.87,0.00915308,0.00914968
1635.0,0.0152618,633.256,3005.58,3003.98,0.0152618,0.0152584
1638.0,0.0162926,633.421,3009.69,3008.09,0.0158896,0.0158862
1641.0,0.00733049,633.585,3013.8,3012.2,0.00733049,0.00732709
1644.0,0.0,633.75,3017.91,3016.3,0.0,-3.39758e-06
1647.0,0.000944699,633.915,3022.02,3020.4,0.0,-3.39764e-06
1650.0,0.0,634.08,3026.12,3024.5,0.0,-3.39773e-06
1653.0,0.0,634.245,3030.23,3028.6,0.0,-3.39783e-06
1656.0,0.0,634.41,3034.33,3032.69,0.0,-3.39797e-06
1659.0,0.000274913,634.575,3038.42,3036.79,0.000274913,0.000271515
1662.0,0.00303952,634.74,3042.52,3040.88,0.000294074,0.000290676
1665.0,0.0,634.905,3046.61,3044.97,0.0,-3.39834e-06
1668.0,0.0,635.07,3050.71,3049.05,0.0,-3.39843e-06
1671.0,0.0,635.235,3054.8,3053.14,0.0,-3.39855e-06
1674.0,0.00146884,635.4,3058.88,3057.22,0.000854758,0.000851359
1677.0,0.0,635.565,3062.97,3061.3,0.000854758,0.000851359
1680.0,0.00057901,635.73,3067.05,3065.38,0.00057901,0.000575611
1683.0,0.000629816,635.895,3071.13,3069.45,0.0,-3.39916e-06
1686.0,0.000109579,636.06,3075.21,3073.53,0.0,-3.39934e-06
1689.0,0.0,636.225,3079.29,3077.6,0.0,-3.39954e-06
1692.0,0.00149198,636.39,3083.36,3081.67,0.000977109,0.000973709
1695.0,0.0,636.555,3087.44,3085.74,0.0,-3.4e-06
1698.0,0.00336634,636.72,3091.51,3089.8,0.00336634,0.00336294
1701.0,0.00158522,636.885,3095.58,3093.87,0.00158522,0.00158182
1704.0,9.94767e-06,637.05,3099.64,3097.93,5.92277e-05,5.5827e-05
1707.0,0.00240153,637.215,3103.71,3101.99,0.00237762,0.00237422
1710.0,0.0,637.38,3107.77,3106.04,0.00171165,0.00170825
1713.0,0.0,637.545,3111.83,3110.1,0.0,-3.40099e-06
1716.0,0.0,637.71,3115.89,3114.15,0.0,-3.40111e-06
1719.0,0.000309949,637.875,3119.94,3118.2,0.000309949,0.000306548
1722.0,0.000737677,638.04,3124,3122.25,0.00152393,0.00152053
1725.0,0.000908039,638.205,3128.05,3126.3,0.000908039,0.000904637
1728.0,0.00133429,638.37,3132.1,3130.34,0.00119513,0.00119173
1731.0,0.00177389,638.535,3136.15,3134.38,0.00177389,0.00177049
1734.0,0.00401119,638.7,3140.19,3138.42,0.0030503,0.0030469
1737.0,0.00536143,638.865,3144.24,3142.46,0.00498671,0.00498331
1740.0,0.00320139,639.03,3148.28,3146.5,0.00320139,0.00319799
1743.0,0.0,639.195,3152.32,3150.53,0.000566862,0.00056346
1746.0,0.00327981,639.36,3156.35,3154.56,0.00327981,0.00327641
1749.0,0.00357962,639.525,3160.39,3158.59,0.00350819,0.00350479
1752.0,0.000171819,639.69,3164.42,3162.62,0.0,-3.40293e-06
1755.0,7.71457e-05,639.855,3168.45,3166.65,7.71457e-05,7.37426e-05
1758.0,0.00139355,640.02,3172.48,3170.67,0.00138367,0.00138027
1761.0,0.0,640.185,3176.51,3174.69,0.0,-3.40308e-06
1764.0,0.00130865,640.35,3180.53,3178.71,0.000574838,0.000571435
1767.0,0.000246899,640.515,3184.55,3182.73,0.000246899,0.000243496
1770.0,0.000804305,640.68,3188.58,3186.74,5.69225e-05,5.35193e-05
1773.0,0.0,640.845,3192.59,3190.76,1.37331e-05,1.033e-05
1776.0,0.000580987,641.01,3196.61,3194.77,0.000580987,0.000577584
1779.0,0.000532019,641.175,3200.62,3198.78,0.000874633,0.00087123
1782.0,0.00296536,641.34,3204.64,3202.78,0.00232339,0.00231999
1785.0,0.00106913,641.505,3208.65,3206.79,0.0022261,0.0022227
1788.0,0.0,641.67,3212.65,3210.79,0.000244769,0.000241366
1791.0,0.0,641.835,3216.66,3214.79,0.0,-3.40243e-06
1794.0,0.00230391,642,3220.66,3218.79,0.00141248,0.00140908
1797.0,0.000201158,642.165,3224.67,3222.79,0.00141248,0.00140908
1800.0,0.0,642.33,3228.67,3226.78,0.00124262,0.00123922
1803.0,0.000656703,642.495,3232.66,3230.78,0.000656703,0.000653301
1806.0,0.000922313,642.66,3236.66,3234.77,0.0,-3.40213e-06
1809.0,0.0,642.825,3240.65,3238.76,0.0,-3.4021e-06
1812.0,0.00191249,642.99,3244.65,3242.74,0.000958482,0.00095508
1815.0,0.00229704,643.155,3248.64,3246.73,0.00215935,0.00215595
1818.0,0.0,643.32,3252.62,3250.71,0.000945468,0.000942066
1821.0,0.00321003,643.485,3256.61,3254.69,0.00098497,0.000981568
1824.0,0.0,643.65,3260.59,3258.67,0.000138094,0.000134692
1827.0,0.000885542,643.815,3264.57,3262.64,0.000138094,0.000134692
1830.0,0.000165053,643.98,3268.55,3266.62,0.000494814,0.000491412
1833.0,0.00280412,644.145,3272.53,3270.59,0.000913567,0.000910165
1836.0,0.0,644.31,3276.51,3274.56,0.000139143,0.000135741
1839.0,0.000113632,644.475,3280.48,3278.53,0.000113632,0.00011023
1842.0,0.000223514,644.64,3284.45,3282.5,0.000221256,0.000217854
1845.0,0.000270886,644.805,3288.42,3286.46,0.000270886,0.000267484
1848.0,0.00102867,644.97,3292.39,3290.42,0.00135032,0.00134692
1851.0,0.00193082,645.135,3296.35,3294.38,0.00190794,0.00190454
1854.0,0.0,645.3,3300.31,3298.34,0.000110063,0.00010666
1857.0,5.49325e-05,645.465,3304.28,3302.3,0.0,-3.40278e-06
1860.0,0.000835201,645.63,3308.23,3306.25,0.0,-3.40273e-06
1863.0,1.14443e-06,645.795,3312.19,3310.2,1.14443e-06,-2.25827e-06
1866.0,0.00214718,645.96,3316.15,3314.15,0.000626871,0.000623468
1869.0,0.0,646.125,3320.1,3318.1,0.000626871,0.000623468
1872.0,0.00227651,646.29,3324.05,3322.05,0.00133607,0.00133267
1875.0,8.89778e-05,646.455,3328,3325.99,8.89778e-05,8.55751e-05
1878.0,0.0,646.619,3331.95,3329.93,0.0,-3.4026e-06
1881.0,0.0,646.784,3335.89,3333.87,0.0,-3.40245e-06
1884.0,0.00045728,646.949,3339.83,3337.81,0.00045728,0.000453878
1887.0,0.00384825,647.114,3343.78,3341.74,0.00143526,0.00143186
1890.0,0.0,647.279,3347.71,3345.68,0.00107462,0.00107122
1893.0,0.00292321,647.444,3351.65,3349.61,0.0019547,0.0019513
1896.0,0.000790519,647.609,3355.59,3353.54,0.00117675,0.00117335
1899.0,0.000560064,647.774,3359.52,3357.47,0.000780183,0.000776782
1902.0,0.0,647.939,3363.45,3361.39,1.36179e-05,1.02175e-05
1905.0,0.000892112,648.104,3367.38,3365.32,0.000817725,0.000814325
1908.0,0.0,648.269,3371.31,3369.24,0.000817725,0.000814325
1911.0,0.00273442,648.434,3375.23,3373.16,0.00164061,0.00163721
1914.0,0.0,648.599,3379.15,3377.08,0.0,-3.39924e-06
1917.0,0.000130846,648.764,3383.07,3380.99,0.0,-3.39897e-06
1920.0,0.00299155,648.929,3386.99,3384.91,0.00262764,0.00262424
1923.0,0.000728266,649.094,3390.91,3388.82,0.00213917,0.00213577
1926.0,0.00144032,649.259,3394.83,3392.73,0.00093586,0.000932462
1929.0,0.00122835,649.424,3398.74,3396.64,0.00122835,0.00122495
1932.0,0.00176132,649.589,3402.65,3400.54,0.00212317,0.00211977
1935.0,0.00250952,649.754,3406.56,3404.45,0.00109042,0.00108702
1938.0,0.0,649.919,3410.47,3408.35,0.0,-3.39722e-06
1941.0,0.000698355,650.084,3414.37,3412.25,0.0,-3.397e-06
1944.0,0.0,650.249,3418.27,3416.15,0.0,-3.39679e-06
1947.0,0.000581475,650.414,3422.17,3420.04,0.000482782,0.000479385
1950.0,0.000579509,650.579,3426.07,3423.94,0.000482782,0.000479386
1953.0,0.0,650.744,3429.97,3427.83,0.000323119,0.000319723
1956.0,0.00200289,650.909,3433.87,3431.72,0.0009586,0.000955204
1959.0,0.000232634,651.074,3437.76,3435.61,0.00076118,0.000757784
1962.0,0.0,651.239,3441.65,3439.49,0.0,-3.39575e-06
1965.0,0.000653563,651.404,3445.54,3443.38,0.000242771,0.000239375
1968.0,0.0,651.569,3449.43,3447.26,0.000474571,0.000471176
1971.0,0.0030879,651.734,3453.31,3451.14,0.00242701,0.00242361
1974.0,0.00241091,651.899,3457.2,3455.02,0.00185289,0.00184949
1977.0,0.0,652.064,3461.08,3458.89,0.000931939,0.000928544
1980.0,0.00304282,652.229,3464.96,3462.77,0.0019201,0.0019167
1983.0,0.0,652.394,3468.83,3466.64,0.000435264,0.000431869
1986.0,0.00136549,652.559,3472.71,3470.51,0.000585982,0.000582587
1989.0,0.000926821,652.724,3476.58,3474.38,0.000926821,0.000923426
1992.0,0.0,652.889,3480.45,3478.25,0.000404438,0.000401043
1995.0,0.0032904,653.054,3484.32,3482.11,0.00162607,0.00162268
1998.0,0.00133147,653.219,3488.19,3485.97,0.00133147,0.00132808
2001.0,0.000120165,653.384,3492.06,3489.83,0.000120165,0.000116771
2004.0,0.000330237,653.549,3495.92,3493.69,0.000330237,0.000326843
2007.0,0.00264172,653.714,3499.78,3497.55,0.00264172,0.00263833
2010.0,0.00396477,653.879,3503.64,3501.4,0.00396477,0.00396138
2013.0,0.00436383,654.044,3507.5,3505.26,0.00395029,0.0039469
2016.0,0.0,654.209,3511.36,3509.11,0.000343996,0.000340602
2019.0,0.00153642,654.374,3515.21,3512.96,0.00123436,0.00123097
2022.0,0.00142361,654.539,3519.06,3516.8,0.00142361,0.00142022
2025.0,0.00264924,654.704,3522.91,3520.65,0.00138349,0.0013801
2028.0,0.0,654.869,3526.76,3524.49,0.000112535,0.000109141
2031.0,0.0,655.034,3530.61,3528.33,0.0,-3.39369e-06
2034.0,0.0,655.199,3534.45,3532.17,0.0,-3.39363e-06
2037.0,0.000507443,655.364,3538.29,3536.01,0.000728809,0.000725415
2040.0,0.00375283,655.529,3542.13,3539.85,0.002689,0.00268561
2043.0,0.0,655.694,3545.97,3543.68,0.0,-3.3935e-06
2046.0,0.00011635,655.859,3549.81,3547.51,0.0,-3.39348e-06
2047.0,0.0,655.914,3551.09,3548.79,0.0,-3.39348e-06