File: data/processed/processed_data/2024-09-03/2024-09-03_glycinepowder_n_y_y_solid_10000_0_5.csv
Pixels #,Intensity (a.u.),Wavelength (nm),Raman shift (cm-1),Raman shift (cm-1) adjusted,Filtered Intensity (a.u.),Baselined Filtered Intensity (a.u.)
0.0,0.000206213,543.337,392.223,393.994,0.0,-1.08859e-07
3.0,4.7303e-05,543.502,397.81,399.573,4.7303e-05,4.71941e-05
6.0,0.000782577,543.667,403.394,405.15,0.000628608,0.000628499
9.0,0.000937394,543.832,408.974,410.723,0.000937394,0.000937285
12.0,0.000243695,543.997,414.551,416.293,0.000243695,0.000243586
15.0,0.000127413,544.162,420.125,421.859,0.000135414,0.000135305
18.0,0.0009999,544.327,425.695,427.422,0.000799753,0.000799644
21.0,7.2785e-05,544.492,431.261,432.981,5.34066e-05,5.32977e-05
24.0,0.0,544.657,436.825,438.537,5.34066e-05,5.32977e-05
27.0,0.00138084,544.822,442.385,444.09,0.000857037,0.000856928
30.0,0.00118895,544.987,447.941,449.64,0.00118895,0.00118884
33.0,0.00018025,545.152,453.494,455.186,0.000977626,0.000977517
36.0,0.000473584,545.317,459.044,460.728,0.000473584,0.000473475
39.0,0.000767284,545.482,464.591,466.268,0.000405154,0.000405045
42.0,0.0,545.647,470.134,471.804,0.000256752,0.000256643
45.0,0.000441812,545.812,475.674,477.337,0.000313153,0.000313044
48.0,0.00105086,545.977,481.21,482.866,0.000697669,0.00069756
51.0,9.9492e-05,546.142,486.743,488.392,0.000741697,0.000741588
54.0,0.00140042,546.307,492.273,493.915,0.00140042,0.00140031
57.0,0.00336623,546.472,497.8,499.434,0.00330795,0.00330784
60.0,0.00443643,546.637,503.323,504.95,0.00443643,0.00443632
63.0,0.00585891,546.802,508.843,510.463,0.00585891,0.0058588
66.0,0.00682947,546.967,514.359,515.972,0.00669693,0.00669682
69.0,0.00567147,547.132,519.872,521.478,0.00567147,0.00567136
72.0,0.00518946,547.297,525.382,526.981,0.00496086,0.00496075
75.0,0.00414731,547.462,530.888,532.48,0.00418661,0.0041865
78.0,0.00623432,547.627,536.392,537.976,0.00623432,0.00623421
81.0,0.00702286,547.792,541.891,543.469,0.0068665,0.00686639
84.0,0.00624256,547.957,547.388,548.958,0.00624256,0.00624245
87.0,0.00536464,548.122,552.881,554.444,0.00536464,0.00536453
90.0,0.003085,548.287,558.371,559.927,0.003085,0.00308489
93.0,0.00103079,548.452,563.858,565.407,0.0016275,0.00162739
96.0,0.00232365,548.617,569.341,570.883,0.00149708,0.00149697
99.0,0.000654417,548.782,574.821,576.356,0.000654417,0.000654308
102.0,0.000372518,548.947,580.298,581.826,0.000372518,0.000372409
105.0,0.00116657,549.112,585.771,587.292,0.00116657,0.00116646
108.0,0.000280729,549.277,591.241,592.755,0.000280729,0.00028062
111.0,0.000601007,549.442,596.708,598.215,0.000601007,0.000600898
114.0,0.000580464,549.607,602.172,603.671,0.00113875,0.00113864
117.0,0.000304184,549.772,607.632,609.125,0.000304184,0.000304075
120.0,0.000532809,549.937,613.089,614.575,0.000210939,0.00021083
123.0,0.000391937,550.102,618.543,620.021,0.000273082,0.000272973
126.0,0.0,550.267,623.993,625.465,0.000273082,0.000272973
129.0,0.00118667,550.432,629.44,630.905,0.00088266,0.000882551
132.0,0.0,550.597,634.884,636.342,0.000158541,0.000158432
135.0,0.000476272,550.762,640.325,641.776,0.000361995,0.000361886
138.0,0.000835944,550.927,645.762,647.206,0.000648244,0.000648135
141.0,0.000387999,551.092,651.197,652.633,0.000648244,0.000648135
144.0,0.00131543,551.257,656.627,658.057,0.00131543,0.00131532
147.0,0.00035734,551.422,662.055,663.478,0.00035734,0.000357231
150.0,0.00222873,551.587,667.48,668.895,0.00143869,0.00143858
153.0,0.000256853,551.752,672.901,674.309,0.000869805,0.000869696
156.0,0.00155936,551.917,678.319,679.72,0.00164027,0.00164016
159.0,0.00275622,552.082,683.733,685.128,0.00275622,0.00275611
162.0,0.00276683,552.247,689.145,690.533,0.00320335,0.00320324
165.0,0.002531,552.412,694.553,695.934,0.002531,0.00253089
168.0,0.00312768,552.577,699.958,701.332,0.00312768,0.00312757
171.0,0.00375134,552.742,705.36,706.727,0.00375134,0.00375123
174.0,0.00400109,552.907,710.758,712.118,0.003916,0.00391589
177.0,0.00373202,553.072,716.154,717.507,0.00382685,0.00382674
180.0,0.00499279,553.237,721.546,722.892,0.00499279,0.00499268
183.0,0.00669774,553.402,726.935,728.274,0.00635948,0.00635937
186.0,0.00668949,553.567,732.32,733.652,0.00668949,0.00668938
189.0,0.00836035,553.732,737.703,739.028,0.00836035,0.00836024
192.0,0.00908057,553.897,743.082,744.4,0.00908057,0.00908046
195.0,0.00957972,554.062,748.458,749.769,0.00957972,0.00957961
198.0,0.0094426,554.227,753.831,755.135,0.00999231,0.0099922
201.0,0.0122686,554.392,759.201,760.498,0.0122287,0.0122286
204.0,0.0134589,554.557,764.567,765.858,0.0134589,0.0134588
207.0,0.0150112,554.722,769.93,771.214,0.0150112,0.0150111
210.0,0.0170072,554.887,775.29,776.567,0.0170072,0.0170071
213.0,0.0209335,555.052,780.647,781.917,0.020697,0.0206969
216.0,0.0216574,555.217,786.001,787.264,0.0216574,0.0216573
219.0,0.0219029,555.382,791.352,792.608,0.0221444,0.0221443
222.0,0.024355,555.546,796.699,797.948,0.024355,0.0243549
225.0,0.0281697,555.711,802.043,803.285,0.0281697,0.0281696
228.0,0.0289889,555.876,807.384,808.62,0.0293809,0.0293808
231.0,0.0312392,556.041,812.722,813.951,0.031316,0.0313159
234.0,0.0325122,556.206,818.057,819.278,0.0324275,0.0324274
237.0,0.0334396,556.371,823.388,824.603,0.0334396,0.0334395
240.0,0.0357677,556.536,828.716,829.924,0.0356175,0.0356174
243.0,0.03578,556.701,834.042,835.243,0.0356648,0.0356647
246.0,0.0348628,556.866,839.364,840.558,0.0350163,0.0350162
249.0,0.0341866,557.031,844.682,845.87,0.0343373,0.0343372
252.0,0.0325176,557.196,849.998,851.179,0.0325176,0.0325175
255.0,0.0311668,557.361,855.311,856.485,0.0304739,0.0304738
258.0,0.0295477,557.526,860.62,861.787,0.0295477,0.0295476
261.0,0.0239712,557.691,865.927,867.087,0.0239712,0.0239711
264.0,0.0203114,557.856,871.23,872.383,0.0203114,0.0203113
267.0,0.0212303,558.021,876.53,877.676,0.0212303,0.0212302
270.0,0.0304832,558.186,881.827,882.966,0.0304832,0.0304831
273.0,0.0372277,558.351,887.12,888.253,0.0354602,0.0354601
276.0,0.0303433,558.516,892.411,893.537,0.0303433,0.0303432
279.0,0.0166355,558.681,897.698,898.818,0.0166355,0.0166354
282.0,0.00066373,558.846,902.983,904.095,0.00066373,0.000663621
285.0,0.000318761,559.011,908.264,909.37,0.0002187,0.000218591
288.0,0.000141146,559.176,913.542,914.641,0.0002187,0.000218591
291.0,0.00155101,559.341,918.817,919.909,0.00155101,0.0015509
294.0,0.00259253,559.506,924.089,925.174,0.00237084,0.00237073
297.0,0.00201856,559.671,929.358,930.436,0.00201856,0.00201845
300.0,0.000580966,559.836,934.624,935.695,0.00154925,0.00154914
303.0,0.00216237,560.001,939.886,940.951,0.00154925,0.00154914
306.0,0.0,560.166,945.146,946.204,0.000576333,0.000576224
309.0,0.000584414,560.331,950.402,951.454,0.000584414,0.000584305
312.0,0.00124575,560.496,955.656,956.7,0.000434643,0.000434534
315.0,0.00049341,560.661,960.906,961.944,0.00049341,0.000493301
318.0,0.00159453,560.826,966.153,967.184,0.00136,0.00135989
321.0,0.00173799,560.991,971.397,972.421,0.00173799,0.00173788
324.0,0.0020863,561.156,976.638,977.655,0.0020863,0.00208619
327.0,0.00259223,561.321,981.876,982.887,0.00259223,0.00259212
330.0,0.00256221,561.486,987.111,988.115,0.00256221,0.0025621
333.0,0.00108244,561.651,992.342,993.34,0.00228481,0.0022847
336.0,0.00334461,561.816,997.571,998.562,0.00286485,0.00286474
339.0,0.00266678,561.981,1002.8,1003.78,0.00187979,0.00187968
342.0,0.00221664,562.146,1008.02,1009,0.00221664,0.00221653
345.0,0.00411882,562.311,1013.24,1014.21,0.00378319,0.00378308
348.0,0.00353113,562.476,1018.45,1019.42,0.00353113,0.00353102
351.0,0.00762247,562.641,1023.67,1024.63,0.00762247,0.00762236
354.0,0.0100725,562.806,1028.88,1029.83,0.0100725,0.0100724
357.0,0.011255,562.971,1034.09,1035.03,0.0107636,0.0107635
360.0,0.00514651,563.136,1039.29,1040.23,0.00514651,0.0051464
363.0,0.000595483,563.301,1044.49,1045.42,0.00147823,0.00147812
366.0,0.00266792,563.466,1049.69,1050.61,0.00177639,0.00177628
369.0,0.000460131,563.631,1054.88,1055.8,0.000884589,0.00088448
372.0,0.00317138,563.796,1060.08,1060.99,0.00286587,0.00286576
375.0,0.000902004,563.961,1065.27,1066.17,0.00234471,0.0023446
378.0,0.00249131,564.126,1070.45,1071.35,0.00234471,0.0023446
381.0,0.00198087,564.291,1075.63,1076.52,0.00198087,0.00198076
384.0,0.00121465,564.456,1080.81,1081.7,0.00131233,0.00131222
387.0,0.00282612,564.621,1085.99,1086.87,0.0017274,0.00172729
390.0,0.000251534,564.786,1091.16,1092.03,0.00128546,0.00128535
393.0,0.00176936,564.951,1096.34,1097.2,0.00187112,0.00187101
396.0,0.0032008,565.116,1101.5,1102.36,0.00297064,0.00297053
399.0,0.00269423,565.281,1106.67,1107.52,0.00296025,0.00296014
402.0,0.00146965,565.446,1111.83,1112.67,0.00170321,0.0017031
405.0,0.000194963,565.611,1116.99,1117.82,0.000575033,0.000574924
408.0,0.000515908,565.776,1122.14,1122.97,0.000936509,0.0009364
411.0,0.00157976,565.941,1127.3,1128.12,0.00157976,0.00157965
414.0,0.00360698,566.106,1132.45,1133.26,0.0032472,0.00324709
417.0,0.00398346,566.271,1137.59,1138.4,0.00398346,0.00398335
420.0,0.00569177,566.436,1142.74,1143.54,0.00479682,0.00479671
423.0,0.000103139,566.601,1147.88,1148.67,0.000103139,0.00010303
426.0,0.00198085,566.766,1153.02,1153.81,0.000717288,0.000717179
429.0,0.000383157,566.931,1158.15,1158.93,0.0012118,0.00121169
432.0,0.00196794,567.096,1163.28,1164.06,0.00180943,0.00180932
435.0,0.00143738,567.261,1168.41,1169.18,0.00143738,0.00143727
438.0,0.0,567.426,1173.54,1174.3,0.0010747,0.00107459
441.0,0.00223167,567.591,1178.66,1179.42,0.00223167,0.00223156
444.0,0.00314734,567.756,1183.78,1184.53,0.00341953,0.00341942
447.0,0.00402026,567.921,1188.9,1189.64,0.00341953,0.00341942
450.0,0.000655986,568.086,1194.01,1194.75,0.00202416,0.00202405
453.0,0.00260602,568.251,1199.12,1199.85,0.00213955,0.00213944
456.0,0.00169075,568.416,1204.23,1204.95,0.00220614,0.00220603
459.0,0.00333664,568.58,1209.33,1210.05,0.00279781,0.0027977
462.0,0.00125953,568.745,1214.44,1215.15,0.00187733,0.00187722
465.0,0.00224514,568.91,1219.53,1220.24,0.00224514,0.00224503
468.0,0.00138369,569.075,1224.63,1225.33,0.00199675,0.00199664
471.0,0.00321377,569.24,1229.72,1230.42,0.00199675,0.00199664
474.0,0.00128573,569.405,1234.81,1235.5,0.00169286,0.00169275
477.0,0.000777207,569.57,1239.9,1240.58,0.000777207,0.000777097
480.0,0.000236786,569.735,1244.99,1245.66,0.000431849,0.000431739
483.0,0.00130661,569.9,1250.07,1250.73,0.00130275,0.00130264
486.0,0.00181843,570.065,1255.14,1255.8,0.0015797,0.00157959
489.0,0.00074217,570.23,1260.22,1260.87,0.00144602,0.00144591
492.0,0.00234813,570.395,1265.29,1265.94,0.00216523,0.00216512
495.0,0.00168583,570.56,1270.36,1271,0.00168583,0.00168572
498.0,0.00145779,570.725,1275.43,1276.06,0.0015326,0.00153249
501.0,0.00266806,570.89,1280.49,1281.12,0.00243436,0.00243425
504.0,0.0018712,571.055,1285.55,1286.17,0.00175642,0.00175631
507.0,0.000438664,571.22,1290.61,1291.22,0.00141954,0.00141943
510.0,0.00133442,571.385,1295.67,1296.27,0.00220855,0.00220844
513.0,0.00446847,571.55,1300.72,1301.32,0.00436487,0.00436476
516.0,0.00554089,571.715,1305.77,1306.36,0.00549843,0.00549832
519.0,0.0097468,571.88,1310.81,1311.4,0.0097468,0.00974669
522.0,0.0247702,572.045,1315.86,1316.44,0.0247702,0.0247701
525.0,0.0288032,572.21,1320.9,1321.47,0.0288032,0.0288031
528.0,0.0265265,572.375,1325.94,1326.5,0.0265265,0.0265264
531.0,0.00832541,572.54,1330.97,1331.53,0.00832541,0.0083253
534.0,0.0,572.705,1336,1336.56,0.0,-1.09694e-07
537.0,0.0,572.87,1341.03,1341.58,0.0,-1.09703e-07
540.0,0.000457008,573.035,1346.06,1346.6,0.000451928,0.000451818
543.0,0.00127958,573.2,1351.08,1351.61,0.000580188,0.000580078
546.0,0.0,573.365,1356.1,1356.63,0.00046994,0.00046983
549.0,0.00164887,573.53,1361.12,1361.64,0.00164887,0.00164876
552.0,0.00224752,573.695,1366.13,1366.65,0.00179373,0.00179362
555.0,0.000302434,573.86,1371.14,1371.65,0.00114715,0.00114704
558.0,0.00422919,574.025,1376.15,1376.65,0.00341456,0.00341445
561.0,0.00350885,574.19,1381.16,1381.65,0.00341456,0.00341445
564.0,0.00196372,574.355,1386.16,1386.65,0.00292777,0.00292766
567.0,0.00477503,574.52,1391.16,1391.64,0.00378531,0.0037852
570.0,0.0042272,574.685,1396.16,1396.63,0.0049797,0.00497959
573.0,0.0089142,574.85,1401.15,1401.62,0.0089142,0.00891409
576.0,0.0109532,575.015,1406.14,1406.61,0.0109399,0.0109398
579.0,0.00845611,575.18,1411.13,1411.59,0.00877571,0.0087756
582.0,0.00494177,575.345,1416.12,1416.57,0.00494177,0.00494166
585.0,0.0,575.51,1421.1,1421.54,0.0,-1.09863e-07
588.0,0.0,575.675,1426.08,1426.52,0.0,-1.09874e-07
591.0,0.00187553,575.84,1431.06,1431.49,0.00187553,0.00187542
594.0,0.00148236,576.005,1436.03,1436.46,0.00234127,0.00234116
597.0,0.0025182,576.17,1441,1441.42,0.00237691,0.0023768
600.0,0.00274177,576.335,1445.97,1446.38,0.00257933,0.00257922
603.0,0.00191139,576.5,1450.94,1451.34,0.0024739,0.00247379
606.0,0.00232012,576.665,1455.9,1456.3,0.0024739,0.00247379
609.0,0.00192702,576.83,1460.86,1461.25,0.00174796,0.00174785
612.0,0.0,576.995,1465.82,1466.2,0.0,-1.09967e-07
615.0,0.000564933,577.16,1470.77,1471.15,0.0,-1.0998e-07
618.0,0.000408293,577.325,1475.72,1476.1,0.000253965,0.000253855
621.0,0.000398732,577.49,1480.67,1481.04,0.000253965,0.000253855
624.0,0.000436408,577.655,1485.62,1485.98,0.000436408,0.000436298
627.0,0.00190377,577.82,1490.56,1490.91,0.00190377,0.00190366
630.0,0.00319871,577.985,1495.5,1495.85,0.00319871,0.0031986
633.0,0.00181742,578.15,1500.44,1500.78,0.00328151,0.0032814
636.0,0.00483199,578.315,1505.37,1505.71,0.00367898,0.00367887
639.0,0.00284167,578.48,1510.3,1510.63,0.00284167,0.00284156
642.0,0.00314966,578.645,1515.23,1515.55,0.00227991,0.0022798
645.0,0.000465382,578.81,1520.16,1520.47,0.000465382,0.000465272
648.0,0.00021767,578.975,1525.08,1525.39,0.000193713,0.000193603
651.0,0.00201847,579.14,1530,1530.31,0.00165148,0.00165137
654.0,0.00074172,579.305,1534.92,1535.22,0.00141295,0.00141284
657.0,0.0,579.47,1539.83,1540.13,0.00028933,0.00028922
660.0,0.000599985,579.635,1544.75,1545.03,0.000599985,0.000599875
663.0,0.0019663,579.8,1549.65,1549.93,0.00180632,0.00180621
666.0,0.000311251,579.965,1554.56,1554.83,0.00180632,0.00180621
669.0,0.00479491,580.13,1559.47,1559.73,0.00479491,0.0047948
672.0,0.00797262,580.295,1564.37,1564.63,0.00767718,0.00767707
675.0,0.00389341,580.46,1569.26,1569.52,0.00389341,0.0038933
678.0,0.000979506,580.625,1574.16,1574.41,0.00101904,0.00101893
681.0,0.000769235,580.79,1579.05,1579.29,0.000294505,0.000294395
684.0,0.0,580.955,1583.94,1584.18,0.0,-1.10212e-07
687.0,0.0,581.12,1588.83,1589.06,0.0,-1.1022e-07
690.0,0.000609751,581.285,1593.71,1593.94,0.000226444,0.000226334
693.0,0.000656856,581.45,1598.59,1598.81,0.000216068,0.000215958
696.0,0.00151465,581.614,1603.47,1603.68,0.00151465,0.00151454
699.0,0.00118406,581.779,1608.35,1608.55,0.00118406,0.00118395
702.0,0.000908099,581.944,1613.22,1613.42,0.000376534,0.000376424
705.0,0.0,582.109,1618.09,1618.28,0.000558084,0.000557974
708.0,0.00205074,582.274,1622.96,1623.15,0.00152769,0.00152758
711.0,0.00175064,582.439,1627.83,1628,0.00175064,0.00175053
714.0,0.000716724,582.604,1632.69,1632.86,0.00152977,0.00152966
717.0,0.00196458,582.769,1637.55,1637.71,0.00124267,0.00124256
720.0,0.0,582.934,1642.4,1642.56,0.0,-1.10326e-07
723.0,0.000256657,583.099,1647.26,1647.41,0.000256657,0.000256547
726.0,0.000799709,583.264,1652.11,1652.26,0.000850896,0.000850786
729.0,0.00139099,583.429,1656.96,1657.1,0.001306,0.00130589
732.0,0.00199272,583.594,1661.8,1661.94,0.00199272,0.00199261
735.0,0.00234906,583.759,1666.65,1666.77,0.00263234,0.00263223
738.0,0.00440112,583.924,1671.49,1671.61,0.00292549,0.00292538
741.0,2.89943e-06,584.089,1676.32,1676.44,0.00031055,0.00031044
744.0,0.0,584.254,1681.16,1681.27,0.000429053,0.000428943
747.0,0.0,584.419,1685.99,1686.09,7.37011e-05,7.35907e-05
750.0,0.000690332,584.584,1690.82,1690.92,7.37011e-05,7.35907e-05
753.0,0.0,584.749,1695.65,1695.74,0.000167811,0.000167701
756.0,0.00348068,584.914,1700.47,1700.55,0.00176199,0.00176188
759.0,0.000224849,585.079,1705.29,1705.37,0.000487907,0.000487797
762.0,2.82025e-05,585.244,1710.11,1710.18,0.000487907,0.000487797
765.0,0.00014431,585.409,1714.92,1714.99,0.000699165,0.000699055
768.0,0.00331279,585.574,1719.74,1719.8,0.00331279,0.00331268
771.0,0.00144544,585.739,1724.55,1724.6,0.00144544,0.00144533
774.0,0.00017792,585.904,1729.35,1729.4,0.000580362,0.000580252
777.0,0.00232532,586.069,1734.16,1734.2,0.00206975,0.00206964
780.0,0.0,586.234,1738.96,1739,0.000344549,0.000344439
783.0,0.00176968,586.399,1743.76,1743.79,0.000344549,0.000344439
786.0,0.000571269,586.564,1748.56,1748.58,0.000513571,0.000513461
789.0,0.000385602,586.729,1753.35,1753.37,0.00130637,0.00130626
792.0,0.00184263,586.894,1758.14,1758.15,0.00184263,0.00184252
795.0,0.00246997,587.059,1762.93,1762.94,0.00164188,0.00164177
798.0,0.0,587.224,1767.72,1767.72,0.000746527,0.000746417
801.0,0.00212803,587.389,1772.5,1772.49,0.00104821,0.0010481
804.0,0.00077009,587.554,1777.28,1777.27,0.00151677,0.00151666
807.0,0.000125751,587.719,1782.06,1782.04,0.000125751,0.000125641
810.0,0.00118642,587.884,1786.83,1786.81,0.00118642,0.00118631
813.0,0.00214823,588.049,1791.61,1791.57,0.00214823,0.00214812
816.0,0.0,588.214,1796.38,1796.34,0.000528894,0.000528784
819.0,4.73729e-05,588.379,1801.14,1801.1,0.000266575,0.000266465
822.0,0.000858778,588.544,1805.91,1805.86,0.000765644,0.000765534
825.0,0.00447263,588.709,1810.67,1810.61,0.0035293,0.00352919
828.0,0.000645799,588.874,1815.43,1815.37,0.000868246,0.000868136
831.0,0.000208995,589.039,1820.19,1820.12,0.000511124,0.000511014
834.0,0.000829324,589.204,1824.94,1824.86,0.000829324,0.000829214
837.0,0.00105954,589.369,1829.69,1829.61,0.00105954,0.00105943
840.0,0.000962191,589.534,1834.44,1834.35,0.000962191,0.000962081
843.0,3.57772e-05,589.699,1839.18,1839.09,0.000836489,0.000836379
846.0,0.00143768,589.864,1843.93,1843.83,0.00143768,0.00143757
849.0,0.000188602,590.029,1848.67,1848.56,0.000188602,0.000188492
852.0,0.00177387,590.194,1853.41,1853.29,0.000783151,0.000783041
855.0,0.000502894,590.359,1858.14,1858.02,0.000974911,0.000974801
858.0,0.000586173,590.524,1862.87,1862.75,0.000807454,0.000807345
861.0,0.00176029,590.689,1867.6,1867.47,0.00169839,0.00169828
864.0,0.000476031,590.854,1872.33,1872.2,0.000476031,0.000475922
867.0,0.00148686,591.019,1877.06,1876.91,0.0014095,0.00140939
870.0,0.00262641,591.184,1881.78,1881.63,0.0023284,0.00232829
873.0,0.00163125,591.349,1886.5,1886.34,0.000888304,0.000888195
876.0,0.0,591.514,1891.21,1891.05,0.0,-1.09205e-07
879.0,4.88289e-06,591.679,1895.93,1895.76,0.000129702,0.000129593
882.0,0.00198661,591.844,1900.64,1900.47,0.00189505,0.00189494
885.0,0.00052669,592.009,1905.35,1905.17,0.00052669,0.000526581
888.0,0.00162642,592.174,1910.05,1909.87,0.00126312,0.00126301
891.0,0.0012967,592.339,1914.76,1914.57,0.00124593,0.00124582
894.0,0.0,592.504,1919.46,1919.26,0.0,-1.08859e-07
897.0,0.00086094,592.669,1924.16,1923.96,0.00086094,0.000860831
900.0,0.000631215,592.834,1928.85,1928.64,0.000631215,0.000631106
903.0,0.000523995,592.999,1933.55,1933.33,0.000523995,0.000523886
906.0,0.00191201,593.164,1938.24,1938.02,0.00182364,0.00182353
909.0,0.0,593.329,1942.93,1942.7,0.000102998,0.000102889
912.0,0.000505633,593.494,1947.61,1947.38,0.000505633,0.000505524
915.0,0.0,593.659,1952.29,1952.05,0.00023434,0.000234232
918.0,0.000594034,593.824,1956.97,1956.73,0.00023434,0.000234232
921.0,0.00150871,593.989,1961.65,1961.4,0.000289174,0.000289066
924.0,0.00040898,594.154,1966.33,1966.07,0.000289174,0.000289066
927.0,0.000199199,594.319,1971,1970.73,0.000176962,0.000176854
930.0,0.00196494,594.484,1975.67,1975.4,0.00196494,0.00196483
933.0,0.000991038,594.648,1980.33,1980.06,0.000991038,0.00099093
936.0,5.64584e-05,594.813,1985,1984.72,5.64584e-05,5.63503e-05
939.0,0.00123263,594.978,1989.66,1989.37,0.00103658,0.00103647
942.0,0.0,595.143,1994.32,1994.03,0.000415995,0.000415887
945.0,0.0,595.308,1998.98,1998.68,0.0,-1.0789e-07
948.0,0.0,595.473,2003.63,2003.33,0.0,-1.07836e-07
951.0,0.00198579,595.638,2008.28,2007.97,0.00198579,0.00198568
954.0,0.0,595.803,2012.93,2012.62,0.0,-1.0773e-07
957.0,0.000746624,595.968,2017.58,2017.26,0.0,-1.07677e-07
960.0,0.0006252,596.133,2022.22,2021.89,0.000930629,0.000930521
963.0,0.00109434,596.298,2026.86,2026.53,0.00107176,0.00107165
966.0,0.0,596.463,2031.5,2031.16,0.000488838,0.00048873
969.0,0.000611124,596.628,2036.14,2035.79,0.0,-1.07469e-07
972.0,0.00130411,596.793,2040.77,2040.42,0.0,-1.07418e-07
975.0,0.0,596.958,2045.4,2045.05,0.000165871,0.000165764
978.0,0.00156788,597.123,2050.03,2049.67,0.00156788,0.00156777
981.0,0.0,597.288,2054.66,2054.29,0.000411536,0.000411429
984.0,0.0,597.453,2059.28,2058.91,0.00029427,0.000294163
987.0,0.00197319,597.618,2063.9,2063.52,0.00191492,0.00191481
990.0,0.00121447,597.783,2068.52,2068.13,0.00121447,0.00121436
993.0,0.0,597.948,2073.14,2072.74,0.0,-1.07069e-07
996.0,0.000151369,598.113,2077.75,2077.35,0.00016083,0.000160723
999.0,0.000855046,598.278,2082.36,2081.95,0.000866871,0.000866764
1002.0,0.00123363,598.443,2086.97,2086.56,0.000866871,0.000866764
1005.0,0.0,598.608,2091.57,2091.16,0.000126192,0.000126085
1008.0,0.000869141,598.773,2096.18,2095.75,0.000126192,0.000126085
1011.0,0.000587472,598.938,2100.78,2100.35,0.00034819,0.000348083
1014.0,0.0014351,599.103,2105.38,2104.94,0.00034819,0.000348083
1017.0,0.0,599.268,2109.97,2109.53,2.65507e-05,2.6444e-05
1020.0,0.00120124,599.433,2114.56,2114.12,2.65507e-05,2.64441e-05
1023.0,5.15162e-05,599.598,2119.15,2118.7,5.15162e-05,5.14096e-05
1026.0,2.08863e-05,599.763,2123.74,2123.28,0.000414944,0.000414837
1029.0,0.00229754,599.928,2128.33,2127.86,0.00145741,0.0014573
1032.0,0.000835722,600.093,2132.91,2132.44,0.000734443,0.000734337
1035.0,0.0,600.258,2137.49,2137.01,0.0,-1.0641e-07
1038.0,0.000295826,600.423,2142.07,2141.59,0.000505811,0.000505705
1041.0,0.00196538,600.588,2146.64,2146.15,0.00162729,0.00162718
1044.0,0.0,600.753,2151.22,2150.72,0.0,-1.06276e-07
1047.0,0.000996757,600.918,2155.79,2155.29,0.0,-1.06232e-07
1050.0,0.0,601.083,2160.35,2159.85,0.000294638,0.000294532
1053.0,0.00112027,601.248,2164.92,2164.41,0.000560501,0.000560395
1056.0,0.0,601.413,2169.48,2168.96,0.000290532,0.000290426
1059.0,0.00121154,601.578,2174.04,2173.52,0.000390562,0.000390456
1062.0,0.00079638,601.743,2178.6,2178.07,0.000631279,0.000631173
1065.0,0.0,601.908,2183.16,2182.62,0.000196078,0.000195972
1068.0,0.00207242,602.073,2187.71,2187.17,0.000239179,0.000239073
1071.0,0.0,602.238,2192.26,2191.71,0.000239179,0.000239073
1074.0,0.00205991,602.403,2196.81,2196.25,0.00190592,0.00190581
1077.0,0.0,602.568,2201.35,2200.79,0.0,-1.0581e-07
1080.0,0.000187839,602.733,2205.89,2205.33,9.12871e-05,9.11813e-05
1083.0,0.00315012,602.898,2210.43,2209.86,0.00273726,0.00273715
1086.0,0.00157582,603.063,2214.97,2214.4,0.00157582,0.00157571
1089.0,0.0,603.228,2219.51,2218.92,0.0,-1.0565e-07
1092.0,0.000794176,603.393,2224.04,2223.45,0.000794176,0.00079407
1095.0,0.0,603.558,2228.57,2227.98,0.00089531,0.000895204
1098.0,0.000617035,603.723,2233.1,2232.5,0.000519164,0.000519058
1101.0,0.00186271,603.888,2237.62,2237.02,0.000147011,0.000146906
1104.0,0.0,604.053,2242.15,2241.54,0.0,-1.05455e-07
1107.0,0.000393525,604.218,2246.67,2246.05,0.0,-1.05417e-07
1110.0,0.0,604.383,2251.19,2250.56,0.000696093,0.000695988
1113.0,0.00127984,604.548,2255.7,2255.07,0.00091189,0.000911785
1116.0,5.34066e-05,604.713,2260.21,2259.58,0.000643684,0.000643579
1119.0,0.00134786,604.878,2264.72,2264.08,0.000643684,0.000643579
1122.0,0.000578468,605.043,2269.23,2268.59,0.000348496,0.000348391
1125.0,0.0,605.208,2273.74,2273.09,0.0,-1.05194e-07
1128.0,0.0,605.373,2278.24,2277.58,0.0,-1.05158e-07
1131.0,5.38643e-05,605.538,2282.74,2282.08,5.38643e-05,5.37592e-05
1134.0,0.000663848,605.703,2287.24,2286.57,0.000663848,0.000663743
1137.0,0.00133915,605.868,2291.74,2291.06,0.00100661,0.0010065
1140.0,4.38587e-05,606.033,2296.23,2295.55,0.00014023,0.000140125
1143.0,0.000480552,606.198,2300.72,2300.03,0.00014023,0.000140125
1146.0,0.000217827,606.363,2305.21,2304.52,0.00058866,0.000588555
1149.0,0.0,606.528,2309.7,2309,0.0,-1.04915e-07
1152.0,0.000253758,606.693,2314.18,2313.47,2.07904e-05,2.06855e-05
1155.0,0.000566618,606.858,2318.66,2317.95,2.07904e-05,2.06856e-05
1158.0,0.0,607.023,2323.14,2322.42,0.0,-1.04816e-07
1161.0,0.000464433,607.188,2327.62,2326.89,0.000899439,0.000899334
1164.0,0.00267301,607.353,2332.09,2331.36,0.0021584,0.0021583
1167.0,0.0,607.518,2336.56,2335.83,0.000299992,0.000299887
1170.0,0.0016459,607.682,2341.03,2340.29,0.000628971,0.000628866
1173.0,0.000944271,607.847,2345.5,2344.75,0.000628971,0.000628866
1176.0,0.0,608.012,2349.96,2349.21,5.95102e-06,5.8464e-06
1179.0,0.000176089,608.177,2354.42,2353.67,0.000176089,0.000175984
1182.0,0.00077486,608.342,2358.88,2358.12,0.00077486,0.000774755
1185.0,0.0,608.507,2363.34,2362.57,0.000292459,0.000292355
1188.0,0.000968045,608.672,2367.79,2367.02,0.000292459,0.000292355
1191.0,0.00105226,608.837,2372.25,2371.47,0.00105226,0.00105216
1194.0,0.00133722,609.002,2376.7,2375.91,0.00202718,0.00202708
1197.0,0.00186663,609.167,2381.14,2380.35,0.00186663,0.00186653
1200.0,0.0,609.332,2385.59,2384.79,0.0,-1.04245e-07
1203.0,0.0,609.497,2390.03,2389.23,0.0,-1.04198e-07
1206.0,0.00117282,609.662,2394.47,2393.66,0.000595303,0.000595199
1209.0,0.000568724,609.827,2398.91,2398.09,0.000568724,0.00056862
1212.0,0.0,609.992,2403.34,2402.52,0.0,-1.04061e-07
1215.0,0.00209612,610.157,2407.78,2406.95,0.000981921,0.000981817
1218.0,0.000725566,610.322,2412.21,2411.38,0.000240024,0.00023992
1221.0,0.00268839,610.487,2416.63,2415.8,0.00261015,0.00261005
1224.0,0.00103397,610.652,2421.06,2420.22,0.00103397,0.00103387
1227.0,0.0,610.817,2425.48,2424.64,0.000220302,0.000220198
1230.0,0.000511635,610.982,2429.9,2429.05,0.000220302,0.000220198
1233.0,0.000754162,611.147,2434.32,2433.46,0.000754162,0.000754058
1236.0,0.00108499,611.312,2438.74,2437.87,6.29832e-05,6.28795e-05
1239.0,0.0,611.477,2443.15,2442.28,0.0,-1.03664e-07
1242.0,0.000820134,611.642,2447.56,2446.69,0.000388183,0.000388079
1245.0,0.000228428,611.807,2451.97,2451.09,0.000388183,0.000388079
1248.0,0.0019568,611.972,2456.38,2455.49,0.00176865,0.00176855
1251.0,0.000624317,612.137,2460.78,2459.89,0.000350621,0.000350518
1254.0,0.0,612.302,2465.19,2464.29,0.0,-1.03454e-07
1257.0,0.000722634,612.467,2469.59,2468.68,0.000677186,0.000677083
1260.0,0.0,612.632,2473.98,2473.07,0.0,-1.03373e-07
1263.0,7.75158e-05,612.797,2478.38,2477.46,0.0,-1.03332e-07
1266.0,0.0,612.962,2482.77,2481.85,0.000117845,0.000117742
1269.0,0.000248558,613.127,2487.16,2486.23,0.000117845,0.000117742
1272.0,0.0,613.292,2491.55,2490.61,0.0,-1.03215e-07
1275.0,0.0,613.457,2495.93,2494.99,0.0,-1.03177e-07
1278.0,0.0,613.622,2500.32,2499.37,0.000263371,0.000263268
1281.0,0.00101254,613.787,2504.7,2503.75,0.00101254,0.00101244
1284.0,0.0,613.952,2509.07,2508.12,0.0,-1.03066e-07
1287.0,0.00256786,614.117,2513.45,2512.49,0.00163094,0.00163084
1290.0,0.0,614.282,2517.82,2516.86,0.000550851,0.000550748
1293.0,0.00176433,614.447,2522.19,2521.22,0.000888682,0.000888579
1296.0,0.00100981,614.612,2526.56,2525.59,0.000888682,0.000888579
1299.0,0.0,614.777,2530.93,2529.95,0.0,-1.02887e-07
1302.0,0.0,614.942,2535.29,2534.3,0.0,-1.02853e-07
1305.0,0.00182915,615.107,2539.66,2538.66,1.53353e-05,1.52325e-05
1308.0,0.0,615.272,2544.02,2543.01,0.0,-1.02786e-07
1311.0,0.000695665,615.437,2548.37,2547.37,0.000649979,0.000649876
1314.0,0.0,615.602,2552.73,2551.72,0.0,-1.02722e-07
1317.0,0.000209882,615.767,2557.08,2556.06,0.000209882,0.000209779
1320.0,0.0,615.932,2561.43,2560.41,3.48243e-05,3.47216e-05
1323.0,0.0,616.097,2565.78,2564.75,0.0,-1.02627e-07
1326.0,0.0,616.262,2570.12,2569.09,0.0,-1.02597e-07
1329.0,0.000925829,616.427,2574.47,2573.43,0.000802578,0.000802475
1332.0,0.0,616.592,2578.81,2577.76,0.000127363,0.00012726
1335.0,0.0,616.757,2583.15,2582.09,0.0,-1.02509e-07
1338.0,0.0,616.922,2587.48,2586.42,0.0,-1.0248e-07
1341.0,0.0,617.087,2591.82,2590.75,0.00104258,0.00104248
1344.0,0.00307455,617.252,2596.15,2595.08,0.00181946,0.00181936
1347.0,0.0,617.417,2600.48,2599.4,4.36408e-05,4.35384e-05
1350.0,0.000629824,617.582,2604.8,2603.72,0.000629824,0.000629722
1353.0,0.000676842,617.747,2609.13,2608.04,0.000676842,0.00067674
1356.0,0.000194184,617.912,2613.45,2612.36,0.0,-1.02317e-07
1359.0,0.0,618.077,2617.77,2616.67,0.0,-1.0229e-07
1362.0,0.00112253,618.242,2622.09,2620.99,0.000812505,0.000812403
1365.0,0.0,618.407,2626.4,2625.3,0.000106426,0.000106324
1368.0,0.0,618.572,2630.72,2629.6,0.000106426,0.000106324
1371.0,0.0,618.737,2635.03,2633.91,0.0,-1.02191e-07
1374.0,0.00077512,618.902,2639.34,2638.21,0.000551133,0.000551031
1377.0,0.00127807,619.067,2643.64,2642.51,0.00157259,0.00157249
1380.0,0.00123454,619.232,2647.95,2646.81,0.00123454,0.00123444
1383.0,0.0,619.397,2652.25,2651.11,4.44084e-05,4.43063e-05
1386.0,0.00068639,619.562,2656.55,2655.4,0.00068639,0.000686288
1389.0,0.00162335,619.727,2660.84,2659.69,0.00152557,0.00152547
1392.0,0.0,619.892,2665.14,2663.98,0.000597238,0.000597136
1395.0,0.000876567,620.057,2669.43,2668.27,0.000597238,0.000597136
1398.0,0.0,620.222,2673.72,2672.55,0.000127933,0.000127831
1401.0,0.0,620.387,2678.01,2676.84,0.0,-1.01964e-07
1404.0,0.000256783,620.551,2682.29,2681.12,0.000174684,0.000174582
1407.0,0.0,620.716,2686.58,2685.39,0.0,-1.01922e-07
1410.0,0.000685616,620.881,2690.86,2689.67,0.000511406,0.000511304
1413.0,0.0,621.046,2695.14,2693.94,9.27284e-05,9.26265e-05
1416.0,0.000836002,621.211,2699.41,2698.21,0.000235341,0.000235239
1419.0,3.26518e-05,621.376,2703.69,2702.48,3.26518e-05,3.255e-05
1422.0,0.0,621.541,2707.96,2706.75,0.0,-1.01824e-07
1425.0,0.00020239,621.706,2712.23,2711.01,0.000380043,0.000379941
1428.0,0.0,621.871,2716.5,2715.27,0.0,-1.01788e-07
1431.0,5.44747e-05,622.036,2720.76,2719.53,5.44747e-05,5.43729e-05
1434.0,0.000680844,622.201,2725.03,2723.79,0.0006563,0.000656198
1437.0,0.000791203,622.366,2729.29,2728.05,0.000791203,0.000791101
1440.0,0.0,622.531,2733.54,2732.3,0.00101926,0.00101916
1443.0,0.0015007,622.696,2737.8,2736.55,0.00107967,0.00107957
1446.0,0.000229343,622.861,2742.05,2740.8,0.000988959,0.000988857
1449.0,0.000669129,623.026,2746.31,2745.04,0.000669129,0.000669027
1452.0,0.0,623.191,2750.56,2749.29,6.97337e-05,6.9632e-05
1455.0,0.00209874,623.356,2754.8,2753.53,0.000705132,0.00070503
1458.0,0.0,623.521,2759.05,2757.77,0.000526258,0.000526156
1461.0,0.000788017,623.686,2763.29,2762.01,0.000589761,0.000589659
1464.0,0.00161536,623.851,2767.53,2766.24,0.000672978,0.000672876
1467.0,0.0,624.016,2771.77,2770.47,0.0,-1.0158e-07
1470.0,0.0,624.181,2776,2774.7,0.0,-1.01565e-07
1473.0,0.0,624.346,2780.24,2778.93,0.0,-1.01552e-07
1476.0,0.000166542,624.511,2784.47,2783.16,0.000166542,0.00016644
1479.0,0.000806925,624.676,2788.7,2787.38,0.000806925,0.000806823
1482.0,0.000692331,624.841,2792.93,2791.6,0.000692331,0.000692229
1485.0,0.0,625.006,2797.15,2795.82,0.0,-1.01502e-07
1488.0,6.07309e-05,625.171,2801.37,2800.04,6.07309e-05,6.06294e-05
1491.0,0.00176184,625.336,2805.59,2804.25,0.00110718,0.00110708
1494.0,0.000174821,625.501,2809.81,2808.47,0.000174821,0.00017472
1497.0,0.000368505,625.666,2814.03,2812.68,0.000368505,0.000368404
1500.0,0.000117854,625.831,2818.24,2816.89,0.000125124,0.000125023
1503.0,0.000471695,625.996,2822.45,2821.09,0.000349015,0.000348914
1506.0,0.00110217,626.161,2826.66,2825.3,0.00110217,0.00110207
1509.0,0.000652441,626.326,2830.87,2829.5,0.000652441,0.00065234
1512.0,0.0,626.491,2835.07,2833.7,6.50419e-05,6.49405e-05
1515.0,0.000273294,626.656,2839.27,2837.89,0.000144732,0.000144631
1518.0,0.0,626.821,2843.48,2842.09,5.6611e-05,5.65096e-05
1521.0,0.00111672,626.986,2847.67,2846.28,0.000665883,0.000665782
1524.0,0.0,627.151,2851.87,2850.47,0.000465217,0.000465116
1527.0,0.00164145,627.316,2856.06,2854.66,0.00134336,0.00134326
1530.0,0.0,627.481,2860.25,2858.85,0.0,-1.01352e-07
1533.0,0.0,627.646,2864.44,2863.03,0.0,-1.01344e-07
1536.0,0.00109442,627.811,2868.63,2867.21,0.000447748,0.000447647
1539.0,0.000708731,627.976,2872.82,2871.39,0.000708731,0.00070863
1542.0,0.000281023,628.141,2877,2875.57,0.000999156,0.000999055
1545.0,0.00159896,628.306,2881.18,2879.74,0.00159896,0.00159886
1548.0,0.0,628.471,2885.36,2883.92,0.00032166,0.000321559
1551.0,0.000394446,628.636,2889.53,2888.09,0.0,-1.01208e-07
1554.0,9.24427e-06,628.801,2893.71,2892.26,0.0,-1.01181e-07
1557.0,0.000307885,628.966,2897.88,2896.42,0.000183548,0.000183447
1560.0,0.00158215,629.131,2902.05,2900.59,0.00158215,0.00158205
1563.0,0.0,629.296,2906.21,2904.75,0.0,-1.01018e-07
1566.0,0.000482223,629.461,2910.38,2908.91,0.0,-1.00964e-07
1569.0,0.0,629.626,2914.54,2913.06,0.0,-1.00911e-07
1572.0,0.000676493,629.791,2918.7,2917.22,0.000676493,0.000676392
1575.0,0.00157252,629.956,2922.86,2921.37,0.00106872,0.00106862
1578.0,0.0,630.121,2927.02,2925.52,0.0,-1.00754e-07
1581.0,0.000318125,630.286,2931.17,2929.67,0.000318125,0.000318024
1584.0,0.000430531,630.451,2935.32,2933.82,0.000392173,0.000392072
1587.0,0.0,630.616,2939.47,2937.96,0.000258017,0.000257916
1590.0,0.00141747,630.781,2943.62,2942.11,0.000294499,0.000294398
1593.0,0.000675568,630.946,2947.77,2946.25,0.000397192,0.000397092
1596.0,0.000445411,631.111,2951.91,2950.38,0.00129285,0.00129275
1599.0,0.00477584,631.276,2956.05,2954.52,0.00373137,0.00373127
1602.0,0.00911687,631.441,2960.19,2958.65,0.00911687,0.00911677
1605.0,0.0170832,631.606,2964.33,2962.79,0.0170832,0.0170831
1608.0,0.0182403,631.771,2968.46,2966.92,0.0183209,0.0183208
1611.0,0.0160098,631.936,2972.6,2971.04,0.0160098,0.0160097
1614.0,0.00479016,632.101,2976.73,2975.17,0.00479016,0.00479006
1617.0,0.0,632.266,2980.85,2979.29,0.0,-1.00088e-07
1620.0,0.0,632.431,2984.98,2983.41,0.0,-1.00021e-07
1623.0,0.0,632.596,2989.1,2987.53,0.0,-9.99556e-08
1626.0,0.0,632.761,2993.23,2991.65,0.0,-9.98907e-08
1629.0,0.000589609,632.926,2997.35,2995.76,0.000589609,0.000589509
1632.0,0.00705908,633.091,3001.46,2999.87,0.00696747,0.00696737
1635.0,0.00725811,633.256,3005.58,3003.98,0.00697206,0.00697196
1638.0,0.00403468,633.421,3009.69,3008.09,0.00403468,0.00403458
1641.0,0.000508717,633.585,3013.8,3012.2,0.000508717,0.000508617
1644.0,0.0,633.75,3017.91,3016.3,0.0,-9.95056e-08
1647.0,0.0,633.915,3022.02,3020.4,0.0,-9.94425e-08
1650.0,0.0,634.08,3026.12,3024.5,0.0,-9.93804e-08
1653.0,0.0,634.245,3030.23,3028.6,0.0,-9.93191e-08
1656.0,0.0,634.41,3034.33,3032.69,0.0,-9.92587e-08
1659.0,0.0,634.575,3038.42,3036.79,0.0,-9.9199e-08
1662.0,0.000186885,634.74,3042.52,3040.88,0.0,-9.91401e-08
1665.0,0.0,634.905,3046.61,3044.97,0.0,-9.90818e-08
1668.0,0.0,635.07,3050.71,3049.05,0.0,-9.90242e-08
1671.0,0.0,635.235,3054.8,3053.14,0.0,-9.89673e-08
1674.0,0.000462534,635.4,3058.88,3057.22,0.0,-9.89113e-08
1677.0,0.0,635.565,3062.97,3061.3,0.0,-9.88556e-08
1680.0,0.0,635.73,3067.05,3065.38,0.0,-9.88007e-08
1683.0,0.0,635.895,3071.13,3069.45,0.0,-9.87465e-08
1686.0,0.0,636.06,3075.21,3073.53,0.0,-9.86932e-08
1689.0,0.0,636.225,3079.29,3077.6,0.0,-9.86408e-08
1692.0,0.0,636.39,3083.36,3081.67,0.0,-9.8589e-08
1695.0,6.50034e-05,636.555,3087.44,3085.74,6.50034e-05,6.49049e-05
1698.0,0.00126354,636.72,3091.51,3089.8,0.00126354,0.00126344
1701.0,0.0,636.885,3095.58,3093.87,0.0,-9.84358e-08
1704.0,0.0,637.05,3099.64,3097.93,0.0,-9.83854e-08
1707.0,0.000264445,637.215,3103.71,3101.99,0.0,-9.83358e-08
1710.0,0.000252537,637.38,3107.77,3106.04,0.000110431,0.000110333
1713.0,0.0,637.545,3111.83,3110.1,0.000110431,0.000110333
1716.0,0.0,637.71,3115.89,3114.15,0.0,-9.81893e-08
1719.0,0.000607309,637.875,3119.94,3118.2,0.0,-9.81416e-08
1722.0,0.000315124,638.04,3124,3122.25,0.000315124,0.000315026
1725.0,0.000782469,638.205,3128.05,3126.3,0.000197311,0.000197213
1728.0,0.0,638.37,3132.1,3130.34,0.000197311,0.000197213
1731.0,0.0,638.535,3136.15,3134.38,0.000276252,0.000276154
1734.0,0.0024037,638.7,3140.19,3138.42,0.00141096,0.00141086
1737.0,0.00143977,638.865,3144.24,3142.46,0.00141096,0.00141086
1740.0,0.000381861,639.03,3148.28,3146.5,0.000381861,0.000381763
1743.0,0.0,639.195,3152.32,3150.53,0.0,-9.77688e-08
1746.0,0.0,639.36,3156.35,3154.56,0.0,-9.77234e-08
1749.0,0.000789454,639.525,3160.39,3158.59,0.0,-9.76786e-08
1752.0,0.0,639.69,3164.42,3162.62,0.0,-9.76341e-08
1755.0,0.0,639.855,3168.45,3166.65,0.0,-9.75905e-08
1758.0,0.0,640.02,3172.48,3170.67,0.0,-9.75477e-08
1761.0,0.000919211,640.185,3176.51,3174.69,0.0,-9.75057e-08
1764.0,0.0,640.35,3180.53,3178.71,0.0,-9.74641e-08
1767.0,0.0,640.515,3184.55,3182.73,0.0,-9.74233e-08
1770.0,0.0,640.68,3188.58,3186.74,0.0,-9.73835e-08
1773.0,0.0,640.845,3192.59,3190.76,0.0,-9.73445e-08
1776.0,0.0,641.01,3196.61,3194.77,0.0,-9.73061e-08
1779.0,2.59403e-05,641.175,3200.62,3198.78,0.0,-9.72686e-08
1782.0,0.000676314,641.34,3204.64,3202.78,0.000676314,0.000676217
1785.0,0.0,641.505,3208.65,3206.79,0.000436875,0.000436778
1788.0,0.0,641.67,3212.65,3210.79,0.0,-9.71579e-08
1791.0,0.0,641.835,3216.66,3214.79,0.0,-9.71221e-08
1794.0,0.00251172,642,3220.66,3218.79,0.000474052,0.000473955
1797.0,0.0,642.165,3224.67,3222.79,0.0,-9.70521e-08
1800.0,0.0,642.33,3228.67,3226.78,0.0,-9.70178e-08
1803.0,0.000393835,642.495,3232.66,3230.78,0.0,-9.69842e-08
1806.0,0.000185702,642.66,3236.66,3234.77,0.0,-9.69509e-08
1809.0,0.0,642.825,3240.65,3238.76,0.0,-9.69181e-08
1812.0,0.0,642.99,3244.65,3242.74,0.0,-9.6886e-08
1815.0,0.0,643.155,3248.64,3246.73,0.0,-9.68544e-08
1818.0,0.0,643.32,3252.62,3250.71,0.0,-9.68235e-08
1821.0,0.000428483,643.485,3256.61,3254.69,9.6904e-05,9.68072e-05
1824.0,0.0,643.65,3260.59,3258.67,0.0,-9.67632e-08
1827.0,0.0,643.815,3264.57,3262.64,0.0,-9.67337e-08
1830.0,0.000249065,643.98,3268.55,3266.62,0.0,-9.67051e-08
1833.0,0.000983064,644.145,3272.53,3270.59,1.51319e-05,1.50352e-05
1836.0,0.0,644.31,3276.51,3274.56,1.51319e-05,1.50353e-05
1839.0,0.00116757,644.475,3280.48,3278.53,0.000588238,0.000588141
1842.0,0.0,644.64,3284.45,3282.5,0.000104372,0.000104275
1845.0,0.00175138,644.805,3288.42,3286.46,0.00117,0.0011699
1848.0,0.0,644.97,3292.39,3290.42,0.0,-9.65401e-08
1851.0,0.000281224,645.135,3296.35,3294.38,0.000246647,0.00024655
1854.0,0.00126149,645.3,3300.31,3298.34,0.00126149,0.00126139
1857.0,0.0,645.465,3304.28,3302.3,0.0,-9.64619e-08
1860.0,0.000568993,645.63,3308.23,3306.25,0.000568993,0.000568897
1863.0,1.87686e-05,645.795,3312.19,3310.2,0.0,-9.64116e-08
1866.0,0.0,645.96,3316.15,3314.15,0.0,-9.6387e-08
1869.0,0.000208653,646.125,3320.1,3318.1,0.000503406,0.00050331
1872.0,0.00138435,646.29,3324.05,3322.05,0.00134844,0.00134834
1875.0,0.0,646.455,3328,3325.99,0.0,-9.63161e-08
1878.0,0.0018879,646.619,3331.95,3329.93,0.00116098,0.00116088
1881.0,0.000574307,646.784,3335.89,3333.87,0.000229116,0.00022902
1884.0,0.0,646.949,3339.83,3337.81,0.0,-9.62479e-08
1887.0,0.00174947,647.114,3343.78,3341.74,0.00134043,0.00134033
1890.0,0.000974046,647.279,3347.71,3345.68,0.000974046,0.00097395
1893.0,0.000532734,647.444,3351.65,3349.61,0.000425266,0.00042517
1896.0,0.0,647.609,3355.59,3353.54,0.0,-9.61612e-08
1899.0,4.61988e-05,647.774,3359.52,3357.47,4.61988e-05,4.61027e-05
1902.0,0.000467351,647.939,3363.45,3361.39,0.00045655,0.000456454
1905.0,5.79843e-05,648.104,3367.38,3365.32,1.67086e-05,1.66125e-05
1908.0,0.0,648.269,3371.31,3369.24,0.0,-9.60789e-08
1911.0,7.67071e-05,648.434,3375.23,3373.16,3.39895e-05,3.38934e-05
1914.0,0.0,648.599,3379.15,3377.08,0.0,-9.60404e-08
1917.0,0.0,648.764,3383.07,3380.99,0.0,-9.60219e-08
1920.0,0.00205774,648.929,3386.99,3384.91,0.000824494,0.000824398
1923.0,0.0,649.094,3390.91,3388.82,2.54826e-05,2.53866e-05
1926.0,0.000172548,649.259,3394.83,3392.73,2.54826e-05,2.53866e-05
1929.0,0.000463677,649.424,3398.74,3396.64,0.000463677,0.000463581
1932.0,0.00115872,649.589,3402.65,3400.54,0.0011425,0.0011424
1935.0,0.000202762,649.754,3406.56,3404.45,0.000144371,0.000144275
1938.0,0.0,649.919,3410.47,3408.35,0.0,-9.59013e-08
1941.0,0.0,650.084,3414.37,3412.25,0.0,-9.58856e-08
1944.0,0.0,650.249,3418.27,3416.15,8.28565e-05,8.27606e-05
1947.0,0.00060039,650.414,3422.17,3420.04,8.28565e-05,8.27606e-05
1950.0,0.0,650.579,3426.07,3423.94,0.0,-9.58418e-08
1953.0,0.0,650.744,3429.97,3427.83,0.0,-9.58283e-08
1956.0,0.0,650.909,3433.87,3431.72,0.00034945,0.000349354
1959.0,0.000222291,651.074,3437.76,3435.61,0.000222291,0.000222195
1962.0,0.0,651.239,3441.65,3439.49,0.0,-9.57914e-08
1965.0,0.000589918,651.404,3445.54,3443.38,0.000172674,0.000172578
1968.0,0.000562378,651.569,3449.43,3447.26,0.000172674,0.000172578
1971.0,0.0,651.734,3453.31,3451.14,0.0,-9.57587e-08
1974.0,0.000291765,651.899,3457.2,3455.02,0.0,-9.57486e-08
1977.0,0.000286243,652.064,3461.08,3458.89,0.000286243,0.000286147
1980.0,0.000502399,652.229,3464.96,3462.77,0.000502399,0.000502303
1983.0,5.82895e-05,652.394,3468.83,3466.64,0.0,-9.57204e-08
1986.0,0.000645323,652.559,3472.71,3470.51,0.000528822,0.000528726
1989.0,0.0,652.724,3476.58,3474.38,0.000242785,0.000242689
1992.0,9.25602e-05,652.889,3480.45,3478.25,0.000242785,0.000242689
1995.0,0.000900561,653.054,3484.32,3482.11,0.000746078,0.000745982
1998.0,0.0,653.219,3488.19,3485.97,0.0,-9.56807e-08
2001.0,0.0,653.384,3492.06,3489.83,0.0,-9.56741e-08
2004.0,0.000876037,653.549,3495.92,3493.69,0.000456051,0.000455955
2007.0,0.0,653.714,3499.78,3497.55,0.0,-9.5663e-08
2010.0,0.000725348,653.879,3503.64,3501.4,0.000599236,0.00059914
2013.0,0.0,654.044,3507.5,3505.26,0.0,-9.56536e-08
2016.0,0.0,654.209,3511.36,3509.11,0.0,-9.56496e-08
2019.0,0.0010638,654.374,3515.21,3512.96,0.000819326,0.00081923
2022.0,0.0,654.539,3519.06,3516.8,0.000496556,0.00049646
2025.0,0.00141633,654.704,3522.91,3520.65,0.000975079,0.000974983
2028.0,0.0,654.869,3526.76,3524.49,0.0,-9.56374e-08
2031.0,0.00108127,655.034,3530.61,3528.33,0.000978831,0.000978735
2034.0,0.00184805,655.199,3534.45,3532.17,0.00112129,0.00112119
2037.0,0.0,655.364,3538.29,3536.01,0.0,-9.56316e-08
2040.0,0.000769756,655.529,3542.13,3539.85,0.000769756,0.00076966
2043.0,0.000847524,655.694,3545.97,3543.68,0.000847524,0.000847428
2046.0,0.0,655.859,3549.81,3547.51,0.0,-9.56283e-08
2047.0,0.0,655.914,3551.09,3548.79,0.0,-9.56282e-08