File: data/processed/processed_data/2024-09-03/2024-09-03_glycinepowder_n_n_y_solid_1000_0_20.csv
Pixels #,Intensity (a.u.),Wavelength (nm),Raman shift (cm-1),Raman shift (cm-1) adjusted,Filtered Intensity (a.u.),Baselined Filtered Intensity (a.u.)
0.0,7.56441,543.337,392.223,393.994,7.56254,-0.0600471
3.0,7.56288,543.502,397.81,399.573,7.56254,-0.0600474
6.0,7.56195,543.667,403.394,405.15,7.56204,-0.0605483
9.0,7.56322,543.832,408.974,410.723,7.56315,-0.0594397
12.0,7.5627,543.997,414.551,416.293,7.5627,-0.0598917
15.0,7.56226,544.162,420.125,421.859,7.56256,-0.0600341
18.0,7.56314,544.327,425.695,427.422,7.56257,-0.0600271
21.0,7.56009,544.492,431.261,432.981,7.56106,-0.0615406
24.0,7.5626,544.657,436.825,438.537,7.56242,-0.0601847
27.0,7.56182,544.822,442.385,444.09,7.56219,-0.0604193
30.0,7.56242,544.987,447.941,449.64,7.56242,-0.0601944
33.0,7.56403,545.152,453.494,455.186,7.56403,-0.05859
36.0,7.56414,545.317,459.044,460.728,7.56345,-0.0591762
39.0,7.56356,545.482,464.591,466.268,7.56345,-0.0591829
42.0,7.56248,545.647,470.134,471.804,7.56298,-0.0596601
45.0,7.56391,545.812,475.674,477.337,7.56372,-0.0589278
48.0,7.56506,545.977,481.21,482.866,7.56506,-0.0575961
51.0,7.56667,546.142,486.743,488.392,7.56667,-0.0559948
54.0,7.56904,546.307,492.273,493.915,7.56904,-0.0536341
57.0,7.57565,546.472,497.8,499.434,7.57565,-0.0470338
60.0,7.58328,546.637,503.323,504.95,7.58328,-0.039414
63.0,7.58917,546.802,508.843,510.463,7.58917,-0.0335345
66.0,7.59507,546.967,514.359,515.972,7.59507,-0.0276453
69.0,7.60061,547.132,519.872,521.478,7.60061,-0.0221163
72.0,7.60718,547.297,525.382,526.981,7.60718,-0.0155575
75.0,7.61103,547.462,530.888,532.48,7.61103,-0.0117189
78.0,7.61843,547.627,536.392,537.976,7.61843,-0.00433035
81.0,7.62715,547.792,541.891,543.469,7.62715,0.00437815
84.0,7.63031,547.957,547.388,548.958,7.63031,0.00752667
87.0,7.63472,548.122,552.881,554.444,7.63472,0.0119253
90.0,7.63576,548.287,558.371,559.927,7.63576,0.012954
93.0,7.63587,548.452,563.858,565.407,7.6362,0.0133828
96.0,7.6384,548.617,569.341,570.883,7.63731,0.0144817
99.0,7.63723,548.782,574.821,576.356,7.63704,0.0142008
102.0,7.63616,548.947,580.298,581.826,7.63701,0.01416
105.0,7.6401,549.112,585.771,587.292,7.63943,0.0165693
108.0,7.63685,549.277,591.241,592.755,7.63685,0.0139788
111.0,7.63856,549.442,596.708,598.215,7.63856,0.0156784
114.0,7.63931,549.607,602.172,603.671,7.64029,0.0173981
117.0,7.63976,549.772,607.632,609.125,7.64004,0.017138
120.0,7.6417,549.937,613.089,614.575,7.64004,0.0171281
123.0,7.63814,550.102,618.543,620.021,7.63976,0.0168383
126.0,7.6407,550.267,623.993,625.465,7.64028,0.0173486
129.0,7.63982,550.432,629.44,630.905,7.63957,0.0166291
132.0,7.63734,550.597,634.884,636.342,7.63745,0.0144997
135.0,7.63755,550.762,640.325,641.776,7.63745,0.0144905
138.0,7.63925,550.927,645.762,647.206,7.63925,0.0162814
141.0,7.6425,551.092,651.197,652.633,7.64201,0.0190325
144.0,7.64286,551.257,656.627,658.057,7.64286,0.0198737
147.0,7.64282,551.422,662.055,663.478,7.64312,0.0201251
150.0,7.64603,551.587,667.48,668.895,7.64489,0.0218867
153.0,7.64621,551.752,672.901,674.309,7.64621,0.0231984
156.0,7.64774,551.917,678.319,679.72,7.64774,0.0247204
159.0,7.65323,552.082,683.733,685.128,7.65323,0.0302026
162.0,7.6566,552.247,689.145,690.533,7.6566,0.0335651
165.0,7.65994,552.412,694.553,695.934,7.66003,0.0369878
168.0,7.66415,552.577,699.958,701.332,7.66415,0.0411009
171.0,7.66878,552.742,705.36,706.727,7.66878,0.0457244
174.0,7.67529,552.907,710.758,712.118,7.67529,0.0522283
177.0,7.68016,553.072,716.154,717.507,7.68016,0.0570926
180.0,7.68843,553.237,721.546,722.892,7.68843,0.0653575
183.0,7.69421,553.402,726.935,728.274,7.69421,0.0711329
186.0,7.706,553.567,732.32,733.652,7.706,0.082919
189.0,7.71628,553.732,737.703,739.028,7.71628,0.0931958
192.0,7.72828,553.897,743.082,744.4,7.72828,0.105193
195.0,7.73809,554.062,748.458,749.769,7.73809,0.115002
198.0,7.75305,554.227,753.831,755.135,7.75305,0.129962
201.0,7.76723,554.392,759.201,760.498,7.76723,0.144142
204.0,7.78619,554.557,764.567,765.858,7.78619,0.163102
207.0,7.80739,554.722,769.93,771.214,7.80739,0.184302
210.0,7.82704,554.887,775.29,776.567,7.82704,0.203952
213.0,7.84953,555.052,780.647,781.917,7.84953,0.226442
216.0,7.87795,555.217,786.001,787.264,7.87795,0.254862
219.0,7.90094,555.382,791.352,792.608,7.90094,0.277852
222.0,7.93152,555.546,796.699,797.948,7.93152,0.308432
225.0,7.96528,555.711,802.043,803.285,7.96528,0.342192
228.0,7.99701,555.876,807.384,808.62,7.99701,0.373922
231.0,8.03193,556.041,812.722,813.951,8.03193,0.408842
234.0,8.06754,556.206,818.057,819.278,8.06754,0.444452
237.0,8.10403,556.371,823.388,824.603,8.10403,0.480942
240.0,8.14209,556.536,828.716,829.924,8.14209,0.519002
243.0,8.17931,556.701,834.042,835.243,8.17931,0.556222
246.0,8.2124,556.866,839.364,840.558,8.2124,0.589312
249.0,8.24911,557.031,844.682,845.87,8.24911,0.626022
252.0,8.27772,557.196,849.998,851.179,8.27772,0.654632
255.0,8.30684,557.361,855.311,856.485,8.30684,0.683752
258.0,8.33175,557.526,860.62,861.787,8.33175,0.708662
261.0,8.35861,557.691,865.927,867.087,8.35861,0.735522
264.0,8.38154,557.856,871.23,872.383,8.38154,0.758452
267.0,8.40584,558.021,876.53,877.676,8.40584,0.782752
270.0,8.44285,558.186,881.827,882.966,8.44285,0.819762
273.0,8.47751,558.351,887.12,888.253,8.47751,0.854422
276.0,8.48901,558.516,892.411,893.537,8.48901,0.865922
279.0,8.48568,558.681,897.698,898.818,8.48568,0.862592
282.0,8.46748,558.846,902.983,904.095,8.46748,0.844392
285.0,8.45918,559.011,908.264,909.37,8.45949,0.836402
288.0,8.46224,559.176,913.542,914.641,8.46224,0.839152
291.0,8.46612,559.341,918.817,919.909,8.46494,0.841852
294.0,8.46663,559.506,924.089,925.174,8.46525,0.842162
297.0,8.46647,559.671,929.358,930.436,8.46647,0.843382
300.0,8.46785,559.836,934.624,935.695,8.46783,0.844742
303.0,8.4661,560.001,939.886,940.951,8.46637,0.843282
306.0,8.46885,560.166,945.146,946.204,8.46892,0.845832
309.0,8.4672,560.331,950.402,951.454,8.46886,0.845772
312.0,8.46742,560.496,955.656,956.7,8.4678,0.844712
315.0,8.46908,560.661,960.906,961.944,8.46891,0.845822
318.0,8.46801,560.826,966.153,967.184,8.46801,0.844922
321.0,8.46734,560.991,971.397,972.421,8.46734,0.844252
324.0,8.47071,561.156,976.638,977.655,8.47071,0.847622
327.0,8.47875,561.321,981.876,982.887,8.47719,0.854102
330.0,8.4781,561.486,987.111,988.115,8.47919,0.856102
333.0,8.47921,561.651,992.342,993.34,8.47975,0.856662
336.0,8.48569,561.816,997.571,998.562,8.48569,0.862602
339.0,8.48978,561.981,1002.8,1003.78,8.48864,0.865552
342.0,8.49478,562.146,1008.02,1009,8.49478,0.871692
345.0,8.49842,562.311,1013.24,1014.21,8.49842,0.875332
348.0,8.50584,562.476,1018.45,1019.42,8.50584,0.882752
351.0,8.51488,562.641,1023.67,1024.63,8.51488,0.891792
354.0,8.52674,562.806,1028.88,1029.83,8.52674,0.903652
357.0,8.53475,562.971,1034.09,1035.03,8.53418,0.911092
360.0,8.53561,563.136,1039.29,1040.23,8.53418,0.911092
363.0,8.53155,563.301,1044.49,1045.42,8.53295,0.909862
366.0,8.53158,563.466,1049.69,1050.61,8.53295,0.909862
369.0,8.53649,563.631,1054.88,1055.8,8.53535,0.912262
372.0,8.53896,563.796,1060.08,1060.99,8.53896,0.915872
375.0,8.53939,563.961,1065.27,1066.17,8.54015,0.917062
378.0,8.53993,564.126,1070.45,1071.35,8.54015,0.917062
381.0,8.54433,564.291,1075.63,1076.52,8.54433,0.921242
384.0,8.5438,564.456,1080.81,1081.7,8.5446,0.921512
387.0,8.54518,564.621,1085.99,1086.87,8.54415,0.921062
390.0,8.54749,564.786,1091.16,1092.03,8.54749,0.924402
393.0,8.54769,564.951,1096.34,1097.2,8.54835,0.925262
396.0,8.5517,565.116,1101.5,1102.36,8.54992,0.926832
399.0,8.55314,565.281,1106.67,1107.52,8.55314,0.930052
402.0,8.55415,565.446,1111.83,1112.67,8.55415,0.931062
405.0,8.55343,565.611,1116.99,1117.82,8.55343,0.930342
408.0,8.55479,565.776,1122.14,1122.97,8.55479,0.931702
411.0,8.55729,565.941,1127.3,1128.12,8.55729,0.934202
414.0,8.56176,566.106,1132.45,1133.26,8.56023,0.937142
417.0,8.56087,566.271,1137.59,1138.4,8.56087,0.937782
420.0,8.56528,566.436,1142.74,1143.54,8.56477,0.941682
423.0,8.56281,566.601,1147.88,1148.67,8.56373,0.940642
426.0,8.56526,566.766,1153.02,1153.81,8.56526,0.942172
429.0,8.56796,566.931,1158.15,1158.93,8.56732,0.944232
432.0,8.56819,567.096,1163.28,1164.06,8.56819,0.945102
435.0,8.56892,567.261,1168.41,1169.18,8.56892,0.945832
438.0,8.56503,567.426,1173.54,1174.3,8.56674,0.943652
441.0,8.57581,567.591,1178.66,1179.42,8.5751,0.952012
444.0,8.57124,567.756,1183.78,1184.53,8.5751,0.952012
447.0,8.57764,567.921,1188.9,1189.64,8.57764,0.954552
450.0,8.57711,568.086,1194.01,1194.75,8.57869,0.955602
453.0,8.58411,568.251,1199.12,1199.85,8.58302,0.959932
456.0,8.58514,568.416,1204.23,1204.95,8.58514,0.962052
459.0,8.58811,568.58,1209.33,1210.05,8.58817,0.965082
462.0,8.5915,568.745,1214.44,1215.15,8.59061,0.967522
465.0,8.59097,568.91,1219.53,1220.24,8.59097,0.967882
468.0,8.5945,569.075,1224.63,1225.33,8.59417,0.971082
471.0,8.59427,569.24,1229.72,1230.42,8.59564,0.972552
474.0,8.59669,569.405,1234.81,1235.5,8.59669,0.973602
477.0,8.59603,569.57,1239.9,1240.58,8.59603,0.972942
480.0,8.59545,569.735,1244.99,1245.66,8.59545,0.972362
483.0,8.59546,569.9,1250.07,1250.73,8.59746,0.974372
486.0,8.60062,570.065,1255.14,1255.8,8.59967,0.976582
489.0,8.60268,570.23,1260.22,1260.87,8.60268,0.979592
492.0,8.6034,570.395,1265.29,1265.94,8.60359,0.980502
495.0,8.60622,570.56,1270.36,1271,8.60622,0.983132
498.0,8.60761,570.725,1275.43,1276.06,8.60693,0.983842
501.0,8.60674,570.89,1280.49,1281.12,8.60693,0.983842
504.0,8.60958,571.055,1285.55,1286.17,8.60958,0.986492
507.0,8.61437,571.22,1290.61,1291.22,8.61437,0.991282
510.0,8.61723,571.385,1295.67,1296.27,8.61723,0.994142
513.0,8.62973,571.55,1300.72,1301.32,8.62973,1.00664
516.0,8.63731,571.715,1305.77,1306.36,8.63731,1.01422
519.0,8.6544,571.88,1310.81,1311.4,8.6544,1.03131
522.0,8.68315,572.045,1315.86,1316.44,8.68315,1.06006
525.0,8.70043,572.21,1320.9,1321.47,8.70043,1.07734
528.0,8.70127,572.375,1325.94,1326.5,8.70127,1.07818
531.0,8.68016,572.54,1330.97,1331.53,8.68016,1.05707
534.0,8.65481,572.705,1336,1336.56,8.65481,1.03172
537.0,8.64041,572.87,1341.03,1341.58,8.64041,1.01732
540.0,8.63532,573.035,1346.06,1346.6,8.63606,1.01297
543.0,8.63783,573.2,1351.08,1351.61,8.63684,1.01375
546.0,8.63798,573.365,1356.1,1356.63,8.63665,1.01356
549.0,8.63535,573.53,1361.12,1361.64,8.63559,1.0125
552.0,8.64397,573.695,1366.13,1366.65,8.64397,1.02088
555.0,8.64221,573.86,1371.14,1371.65,8.64498,1.02189
558.0,8.64905,574.025,1376.15,1376.65,8.64905,1.02596
561.0,8.65094,574.19,1381.16,1381.65,8.65094,1.02785
564.0,8.65755,574.355,1386.16,1386.65,8.65755,1.03446
567.0,8.66421,574.52,1391.16,1391.64,8.66421,1.04112
570.0,8.67024,574.685,1396.16,1396.63,8.67024,1.04715
573.0,8.6826,574.85,1401.15,1401.62,8.6826,1.05951
576.0,8.68723,575.015,1406.14,1406.61,8.68723,1.06414
579.0,8.68929,575.18,1411.13,1411.59,8.68929,1.0662
582.0,8.68537,575.345,1416.12,1416.57,8.68537,1.06228
585.0,8.67605,575.51,1421.1,1421.54,8.67605,1.05296
588.0,8.66629,575.675,1426.08,1426.52,8.66785,1.04476
591.0,8.67229,575.84,1431.06,1431.49,8.67229,1.0492
594.0,8.67767,576.005,1436.03,1436.46,8.67573,1.05264
597.0,8.67878,576.17,1441,1441.42,8.67878,1.05569
600.0,8.67965,576.335,1445.97,1446.38,8.67965,1.05656
603.0,8.68112,576.5,1450.94,1451.34,8.6798,1.05671
606.0,8.68233,576.665,1455.9,1456.3,8.68023,1.05714
609.0,8.6792,576.83,1460.86,1461.25,8.6792,1.05611
612.0,8.6715,576.995,1465.82,1466.2,8.67198,1.04889
615.0,8.67295,577.16,1470.77,1471.15,8.67125,1.04816
618.0,8.66912,577.325,1475.72,1476.1,8.67031,1.04722
621.0,8.67401,577.49,1480.67,1481.04,8.67358,1.05049
624.0,8.67349,577.655,1485.62,1485.98,8.67358,1.05049
627.0,8.67649,577.82,1490.56,1490.91,8.67649,1.0534
630.0,8.67826,577.985,1495.5,1495.85,8.67826,1.05517
633.0,8.68494,578.15,1500.44,1500.78,8.68258,1.05949
636.0,8.68425,578.315,1505.37,1505.71,8.68425,1.06116
639.0,8.6903,578.48,1510.3,1510.63,8.68973,1.06664
642.0,8.68979,578.645,1515.23,1515.55,8.68973,1.06664
645.0,8.6884,578.81,1520.16,1520.47,8.6884,1.06531
648.0,8.68866,578.975,1525.08,1525.39,8.68866,1.06557
651.0,8.69062,579.14,1530,1530.31,8.69102,1.06793
654.0,8.69015,579.305,1534.92,1535.22,8.69102,1.06793
657.0,8.69204,579.47,1539.83,1540.13,8.69131,1.06822
660.0,8.68956,579.635,1544.75,1545.03,8.69097,1.06788
663.0,8.69261,579.8,1549.65,1549.93,8.69261,1.06952
666.0,8.69491,579.965,1554.56,1554.83,8.69536,1.07227
669.0,8.70259,580.13,1559.47,1559.73,8.70259,1.0795
672.0,8.70458,580.295,1564.37,1564.63,8.70458,1.08149
675.0,8.70683,580.46,1569.26,1569.52,8.70373,1.08064
678.0,8.70251,580.625,1574.16,1574.41,8.70251,1.07942
681.0,8.69959,580.79,1579.05,1579.29,8.69959,1.0765
684.0,8.69837,580.955,1583.94,1584.18,8.69837,1.07528
687.0,8.69406,581.12,1588.83,1589.06,8.69497,1.07188
690.0,8.69631,581.285,1593.71,1593.94,8.6949,1.07181
693.0,8.69148,581.45,1598.59,1598.81,8.69203,1.06894
696.0,8.69491,581.614,1603.47,1603.68,8.69484,1.07175
699.0,8.69413,581.779,1608.35,1608.55,8.69521,1.07212
702.0,8.69765,581.944,1613.22,1613.42,8.69534,1.07225
705.0,8.69519,582.109,1618.09,1618.28,8.69519,1.0721
708.0,8.70048,582.274,1622.96,1623.15,8.6991,1.07601
711.0,8.69969,582.439,1627.83,1628,8.69895,1.07586
714.0,8.69503,582.604,1632.69,1632.86,8.69781,1.07472
717.0,8.69958,582.769,1637.55,1637.71,8.69903,1.07594
720.0,8.69679,582.934,1642.4,1642.56,8.69679,1.0737
723.0,8.69513,583.099,1647.26,1647.41,8.69524,1.07215
726.0,8.69621,583.264,1652.11,1652.26,8.69621,1.07312
729.0,8.70014,583.429,1656.96,1657.1,8.70014,1.07705
732.0,8.70223,583.594,1661.8,1661.94,8.70223,1.07914
735.0,8.70771,583.759,1666.65,1666.77,8.70525,1.08216
738.0,8.70014,583.924,1671.49,1671.61,8.70014,1.07705
741.0,8.7021,584.089,1676.32,1676.44,8.70164,1.07855
744.0,8.70011,584.254,1681.16,1681.27,8.70164,1.07855
747.0,8.69927,584.419,1685.99,1686.09,8.69987,1.07678
750.0,8.69791,584.584,1690.82,1690.92,8.69832,1.07523
753.0,8.69613,584.749,1695.65,1695.74,8.69832,1.07523
756.0,8.70105,584.914,1700.47,1700.55,8.69915,1.07606
759.0,8.69971,585.079,1705.29,1705.37,8.69915,1.07606
762.0,8.69801,585.244,1710.11,1710.18,8.69856,1.07547
765.0,8.69941,585.409,1714.92,1714.99,8.69941,1.07632
768.0,8.70074,585.574,1719.74,1719.8,8.70098,1.07789
771.0,8.69935,585.739,1724.55,1724.6,8.69945,1.07636
774.0,8.70497,585.904,1729.35,1729.4,8.70497,1.08188
777.0,8.70588,586.069,1734.16,1734.2,8.70518,1.08209
780.0,8.70011,586.234,1738.96,1739,8.70209,1.079
783.0,8.70344,586.399,1743.76,1743.79,8.70241,1.07932
786.0,8.70343,586.564,1748.56,1748.58,8.70321,1.08012
789.0,8.7035,586.729,1753.35,1753.37,8.7035,1.08041
792.0,8.70081,586.894,1758.14,1758.15,8.70081,1.07772
795.0,8.70094,587.059,1762.93,1762.94,8.70094,1.07785
798.0,8.69964,587.224,1767.72,1767.72,8.70105,1.07796
801.0,8.70305,587.389,1772.5,1772.49,8.70218,1.07909
804.0,8.70109,587.554,1777.28,1777.27,8.70129,1.0782
807.0,8.69891,587.719,1782.06,1782.04,8.70007,1.07698
810.0,8.70603,587.884,1786.83,1786.81,8.70407,1.08098
813.0,8.70078,588.049,1791.61,1791.57,8.70078,1.07769
816.0,8.70063,588.214,1796.38,1796.34,8.70002,1.07693
819.0,8.69872,588.379,1801.14,1801.1,8.69943,1.07634
822.0,8.70462,588.544,1805.91,1805.86,8.70462,1.08153
825.0,8.70279,588.709,1810.67,1810.61,8.70279,1.0797
828.0,8.70463,588.874,1815.43,1815.37,8.70363,1.08054
831.0,8.70234,589.039,1820.19,1820.12,8.70285,1.07976
834.0,8.70321,589.204,1824.94,1824.86,8.70321,1.08012
837.0,8.70345,589.369,1829.69,1829.61,8.70345,1.08036
840.0,8.70059,589.534,1834.44,1834.35,8.70211,1.07902
843.0,8.70598,589.699,1839.18,1839.09,8.70563,1.08254
846.0,8.70742,589.864,1843.93,1843.83,8.70733,1.08424
849.0,8.70648,590.029,1848.67,1848.56,8.70648,1.08339
852.0,8.70832,590.194,1853.41,1853.29,8.70995,1.08686
855.0,8.70717,590.359,1858.14,1858.02,8.70832,1.08523
858.0,8.70888,590.524,1862.87,1862.75,8.70748,1.08439
861.0,8.70843,590.689,1867.6,1867.47,8.70843,1.08534
864.0,8.71096,590.854,1872.33,1872.2,8.7105,1.08741
867.0,8.70799,591.019,1877.06,1876.91,8.70864,1.08555
870.0,8.70912,591.184,1881.78,1881.63,8.70912,1.08603
873.0,8.70603,591.349,1886.5,1886.34,8.70603,1.08294
876.0,8.70456,591.514,1891.21,1891.05,8.70482,1.08173
879.0,8.70654,591.679,1895.93,1895.76,8.70654,1.08345
882.0,8.71124,591.844,1900.64,1900.47,8.70936,1.08627
885.0,8.70824,592.009,1905.35,1905.17,8.70824,1.08515
888.0,8.70533,592.174,1910.05,1909.87,8.70415,1.08106
891.0,8.69979,592.339,1914.76,1914.57,8.69979,1.0767
894.0,8.69952,592.504,1919.46,1919.26,8.69952,1.07643
897.0,8.70063,592.669,1924.16,1923.96,8.70166,1.07857
900.0,8.70306,592.834,1928.85,1928.64,8.70216,1.07907
903.0,8.70073,592.999,1933.55,1933.33,8.70159,1.0785
906.0,8.70267,593.164,1938.24,1938.02,8.70117,1.07808
909.0,8.69708,593.329,1942.93,1942.7,8.69847,1.07538
912.0,8.69918,593.494,1947.61,1947.38,8.69887,1.07578
915.0,8.69592,593.659,1952.29,1952.05,8.69592,1.07283
918.0,8.69174,593.824,1956.97,1956.73,8.69312,1.07003
921.0,8.69732,593.989,1961.65,1961.4,8.69548,1.07239
924.0,8.69376,594.154,1966.33,1966.07,8.69369,1.0706
927.0,8.69293,594.319,1971,1970.73,8.69293,1.06984
930.0,8.69331,594.484,1975.67,1975.4,8.69331,1.07022
933.0,8.69178,594.648,1980.33,1980.06,8.69178,1.06869
936.0,8.69156,594.813,1985,1984.72,8.69105,1.06796
939.0,8.69103,594.978,1989.66,1989.37,8.69108,1.06799
942.0,8.68919,595.143,1994.32,1994.03,8.68919,1.0661
945.0,8.68474,595.308,1998.98,1998.68,8.68474,1.06165
948.0,8.68468,595.473,2003.63,2003.33,8.68405,1.06096
951.0,8.68384,595.638,2008.28,2007.97,8.68246,1.05937
954.0,8.67915,595.803,2012.93,2012.62,8.68139,1.0583
957.0,8.67919,595.968,2017.58,2017.26,8.67919,1.0561
960.0,8.67877,596.133,2022.22,2021.89,8.67854,1.05545
963.0,8.67999,596.298,2026.86,2026.53,8.67854,1.05545
966.0,8.67403,596.463,2031.5,2031.16,8.67403,1.05094
969.0,8.6745,596.628,2036.14,2035.79,8.67377,1.05068
972.0,8.67511,596.793,2040.77,2040.42,8.67405,1.05096
975.0,8.67116,596.958,2045.4,2045.05,8.67116,1.04807
978.0,8.66805,597.123,2050.03,2049.67,8.66838,1.04529
981.0,8.66849,597.288,2054.66,2054.29,8.66838,1.04529
984.0,8.66847,597.453,2059.28,2058.91,8.66847,1.04538
987.0,8.66483,597.618,2063.9,2063.52,8.66483,1.04174
990.0,8.66211,597.783,2068.52,2068.13,8.66211,1.03902
993.0,8.65956,597.948,2073.14,2072.74,8.6609,1.03781
996.0,8.66234,598.113,2077.75,2077.35,8.66222,1.03913
999.0,8.65841,598.278,2082.36,2081.95,8.65859,1.0355
1002.0,8.65832,598.443,2086.97,2086.56,8.65869,1.0356
1005.0,8.65365,598.608,2091.57,2091.16,8.65365,1.03056
1008.0,8.65462,598.773,2096.18,2095.75,8.65314,1.03005
1011.0,8.65149,598.938,2100.78,2100.35,8.65188,1.02879
1014.0,8.65068,599.103,2105.38,2104.94,8.65068,1.02759
1017.0,8.64819,599.268,2109.97,2109.53,8.64844,1.02535
1020.0,8.64824,599.433,2114.56,2114.12,8.64898,1.02589
1023.0,8.6503,599.598,2119.15,2118.7,8.64986,1.02677
1026.0,8.64646,599.763,2123.74,2123.28,8.64723,1.02414
1029.0,8.64617,599.928,2128.33,2127.86,8.64568,1.02259
1032.0,8.64246,600.093,2132.91,2132.44,8.64246,1.01937
1035.0,8.64109,600.258,2137.49,2137.01,8.64109,1.018
1038.0,8.63931,600.423,2142.07,2141.59,8.63961,1.01652
1041.0,8.63844,600.588,2146.64,2146.15,8.63927,1.01618
1044.0,8.63801,600.753,2151.22,2150.72,8.63629,1.0132
1047.0,8.63619,600.918,2155.79,2155.29,8.63608,1.01299
1050.0,8.63409,601.083,2160.35,2159.85,8.63439,1.0113
1053.0,8.6348,601.248,2164.92,2164.41,8.6348,1.01171
1056.0,8.62973,601.413,2169.48,2168.96,8.62974,1.00665
1059.0,8.63084,601.578,2174.04,2173.52,8.62974,1.00665
1062.0,8.62782,601.743,2178.6,2178.07,8.62863,1.00554
1065.0,8.62504,601.908,2183.16,2182.62,8.62504,1.00195
1068.0,8.62563,602.073,2187.71,2187.17,8.62473,1.00164
1071.0,8.62404,602.238,2192.26,2191.71,8.62404,1.00095
1074.0,8.62132,602.403,2196.81,2196.25,8.62132,0.998232
1077.0,8.6206,602.568,2201.35,2200.79,8.62121,0.998122
1080.0,8.62295,602.733,2205.89,2205.33,8.62295,0.999862
1083.0,8.62424,602.898,2210.43,2209.86,8.62133,0.998242
1086.0,8.62103,603.063,2214.97,2214.4,8.62103,0.997942
1089.0,8.61734,603.228,2219.51,2218.92,8.61766,0.994572
1092.0,8.61623,603.393,2224.04,2223.45,8.61668,0.993592
1095.0,8.61623,603.558,2228.57,2227.98,8.61668,0.993592
1098.0,8.61679,603.723,2233.1,2232.5,8.61679,0.993702
1101.0,8.61335,603.888,2237.62,2237.02,8.615,0.991912
1104.0,8.61254,604.053,2242.15,2241.54,8.61337,0.990282
1107.0,8.60753,604.218,2246.67,2246.05,8.6076,0.984512
1110.0,8.60867,604.383,2251.19,2250.56,8.60867,0.985582
1113.0,8.61282,604.548,2255.7,2255.07,8.61282,0.989732
1116.0,8.61082,604.713,2260.21,2259.58,8.61056,0.987472
1119.0,8.61001,604.878,2264.72,2264.08,8.60938,0.986292
1122.0,8.60545,605.043,2269.23,2268.59,8.60545,0.982362
1125.0,8.60148,605.208,2273.74,2273.09,8.60148,0.978392
1128.0,8.60278,605.373,2278.24,2277.58,8.60264,0.979552
1131.0,8.59897,605.538,2282.74,2282.08,8.59951,0.976422
1134.0,8.59911,605.703,2287.24,2286.57,8.59911,0.976022
1137.0,8.59962,605.868,2291.74,2291.06,8.59947,0.976382
1140.0,8.59858,606.033,2296.23,2295.55,8.59802,0.974932
1143.0,8.59764,606.198,2300.72,2300.03,8.59727,0.974182
1146.0,8.59495,606.363,2305.21,2304.52,8.59495,0.971862
1149.0,8.59235,606.528,2309.7,2309,8.59235,0.969262
1152.0,8.5898,606.693,2314.18,2313.47,8.59164,0.968552
1155.0,8.5956,606.858,2318.66,2317.95,8.59327,0.970182
1158.0,8.59209,607.023,2323.14,2322.42,8.59244,0.969352
1161.0,8.59239,607.188,2327.62,2326.89,8.59239,0.969302
1164.0,8.58771,607.353,2332.09,2331.36,8.58771,0.964622
1167.0,8.58809,607.518,2336.56,2335.83,8.58714,0.964052
1170.0,8.58602,607.682,2341.03,2340.29,8.58775,0.964662
1173.0,8.58904,607.847,2345.5,2344.75,8.58838,0.965292
1176.0,8.58504,608.012,2349.96,2349.21,8.58504,0.961952
1179.0,8.58058,608.177,2354.42,2353.67,8.58229,0.959202
1182.0,8.58158,608.342,2358.88,2358.12,8.58158,0.958492
1185.0,8.57739,608.507,2363.34,2362.57,8.57939,0.956302
1188.0,8.57861,608.672,2367.79,2367.02,8.57861,0.955522
1191.0,8.57672,608.837,2372.25,2371.47,8.57521,0.952122
1194.0,8.57544,609.002,2376.7,2375.91,8.57541,0.952322
1197.0,8.57612,609.167,2381.14,2380.35,8.57541,0.952322
1200.0,8.56988,609.332,2385.59,2384.79,8.57016,0.947072
1203.0,8.56856,609.497,2390.03,2389.23,8.56866,0.945572
1206.0,8.56772,609.662,2394.47,2393.66,8.56772,0.944632
1209.0,8.56857,609.827,2398.91,2398.09,8.56664,0.943552
1212.0,8.56334,609.992,2403.34,2402.52,8.56525,0.942162
1215.0,8.56453,610.157,2407.78,2406.95,8.56437,0.941282
1218.0,8.56204,610.322,2412.21,2411.38,8.56235,0.939262
1221.0,8.56386,610.487,2416.63,2415.8,8.56356,0.940472
1224.0,8.55945,610.652,2421.06,2420.22,8.55945,0.936362
1227.0,8.55559,610.817,2425.48,2424.64,8.55559,0.932502
1230.0,8.55511,610.982,2429.9,2429.05,8.55511,0.932022
1233.0,8.55576,611.147,2434.32,2433.46,8.55576,0.932672
1236.0,8.55432,611.312,2438.74,2437.87,8.55344,0.930352
1239.0,8.55055,611.477,2443.15,2442.28,8.55103,0.927942
1242.0,8.55075,611.642,2447.56,2446.69,8.55014,0.927052
1245.0,8.54712,611.807,2451.97,2451.09,8.54811,0.925022
1248.0,8.55016,611.972,2456.38,2455.49,8.54811,0.925022
1251.0,8.54424,612.137,2460.78,2459.89,8.54424,0.921152
1254.0,8.54638,612.302,2465.19,2464.29,8.54626,0.923172
1257.0,8.5426,612.467,2469.59,2468.68,8.5426,0.919512
1260.0,8.53719,612.632,2473.98,2473.07,8.53923,0.916142
1263.0,8.54036,612.797,2478.38,2477.46,8.53954,0.916452
1266.0,8.53892,612.962,2482.77,2481.85,8.53838,0.915292
1269.0,8.5356,613.127,2487.16,2486.23,8.5362,0.913112
1272.0,8.533,613.292,2491.55,2490.61,8.533,0.909912
1275.0,8.53087,613.457,2495.93,2494.99,8.53087,0.907782
1278.0,8.52876,613.622,2500.32,2499.37,8.52801,0.904922
1281.0,8.52407,613.787,2504.7,2503.75,8.52612,0.903032
1284.0,8.52566,613.952,2509.07,2508.12,8.52596,0.902872
1287.0,8.52693,614.117,2513.45,2512.49,8.52596,0.902872
1290.0,8.52262,614.282,2517.82,2516.86,8.52262,0.899532
1293.0,8.5188,614.447,2522.19,2521.22,8.5188,0.895712
1296.0,8.51932,614.612,2526.56,2525.59,8.51825,0.895162
1299.0,8.5169,614.777,2530.93,2529.95,8.5169,0.893812
1302.0,8.51119,614.942,2535.29,2534.3,8.51119,0.888102
1305.0,8.5113,615.107,2539.66,2538.66,8.51076,0.887672
1308.0,8.50758,615.272,2544.02,2543.01,8.50758,0.884492
1311.0,8.50561,615.437,2548.37,2547.37,8.50561,0.882522
1314.0,8.50183,615.602,2552.73,2551.72,8.50183,0.878742
1317.0,8.49755,615.767,2557.08,2556.06,8.499,0.875912
1320.0,8.49892,615.932,2561.43,2560.41,8.49892,0.875832
1323.0,8.49877,616.097,2565.78,2564.75,8.49867,0.875582
1326.0,8.49863,616.262,2570.12,2569.09,8.49863,0.875542
1329.0,8.49065,616.427,2574.47,2573.43,8.49065,0.867562
1332.0,8.48824,616.592,2578.81,2577.76,8.48913,0.866042
1335.0,8.4882,616.757,2583.15,2582.09,8.4882,0.865112
1338.0,8.48683,616.922,2587.48,2586.42,8.48683,0.863742
1341.0,8.483,617.087,2591.82,2590.75,8.483,0.859912
1344.0,8.48278,617.252,2596.15,2595.08,8.48203,0.858942
1347.0,8.47976,617.417,2600.48,2599.4,8.47976,0.856672
1350.0,8.47735,617.582,2604.8,2603.72,8.4781,0.855012
1353.0,8.48132,617.747,2609.13,2608.04,8.47973,0.856642
1356.0,8.47881,617.912,2613.45,2612.36,8.47868,0.855592
1359.0,8.4723,618.077,2617.77,2616.67,8.4723,0.849212
1362.0,8.46814,618.242,2622.09,2620.99,8.46786,0.844772
1365.0,8.46425,618.407,2626.4,2625.3,8.46425,0.841162
1368.0,8.46261,618.572,2630.72,2629.6,8.46359,0.840502
1371.0,8.46398,618.737,2635.03,2633.91,8.46359,0.840502
1374.0,8.45982,618.902,2639.34,2638.21,8.45982,0.836732
1377.0,8.45799,619.067,2643.64,2642.51,8.45799,0.834902
1380.0,8.45251,619.232,2647.95,2646.81,8.453,0.829912
1383.0,8.45034,619.397,2652.25,2651.11,8.45142,0.828332
1386.0,8.45154,619.562,2656.55,2655.4,8.45154,0.828452
1389.0,8.44837,619.727,2660.84,2659.69,8.44837,0.825282
1392.0,8.44389,619.892,2665.14,2663.98,8.44389,0.820802
1395.0,8.44538,620.057,2669.43,2668.27,8.44538,0.822292
1398.0,8.44539,620.222,2673.72,2672.55,8.44551,0.822422
1401.0,8.44305,620.387,2678.01,2676.84,8.44305,0.819962
1404.0,8.43924,620.551,2682.29,2681.12,8.43924,0.816152
1407.0,8.43457,620.716,2686.58,2685.39,8.43571,0.812622
1410.0,8.43748,620.881,2690.86,2689.67,8.4358,0.812712
1413.0,8.43579,621.046,2695.14,2693.94,8.4355,0.812412
1416.0,8.43435,621.211,2699.41,2698.21,8.43435,0.811262
1419.0,8.43019,621.376,2703.69,2702.48,8.43054,0.807452
1422.0,8.42902,621.541,2707.96,2706.75,8.42902,0.805932
1425.0,8.42749,621.706,2712.23,2711.01,8.42654,0.803452
1428.0,8.42228,621.871,2716.5,2715.27,8.42442,0.801332
1431.0,8.42697,622.036,2720.76,2719.53,8.42511,0.802022
1434.0,8.42043,622.201,2725.03,2723.79,8.42174,0.798652
1437.0,8.42295,622.366,2729.29,2728.05,8.42174,0.798652
1440.0,8.4169,622.531,2733.54,2732.3,8.41825,0.795162
1443.0,8.41798,622.696,2737.8,2736.55,8.41799,0.794902
1446.0,8.41907,622.861,2742.05,2740.8,8.41732,0.794232
1449.0,8.41297,623.026,2746.31,2745.04,8.41297,0.789882
1452.0,8.40921,623.191,2750.56,2749.29,8.41061,0.787522
1455.0,8.41238,623.356,2754.8,2753.53,8.41061,0.787522
1458.0,8.4076,623.521,2759.05,2757.77,8.4076,0.784512
1461.0,8.40383,623.686,2763.29,2762.01,8.40462,0.781532
1464.0,8.40839,623.851,2767.53,2766.24,8.4042,0.781112
1467.0,8.39699,624.016,2771.77,2770.47,8.3998,0.776712
1470.0,8.401,624.181,2776,2774.7,8.3998,0.776712
1473.0,8.39938,624.346,2780.24,2778.93,8.39993,0.776842
1476.0,8.40025,624.511,2784.47,2783.16,8.40028,0.777192
1479.0,8.39911,624.676,2788.7,2787.38,8.39911,0.776022
1482.0,8.39627,624.841,2792.93,2791.6,8.39627,0.773182
1485.0,8.39372,625.006,2797.15,2795.82,8.39459,0.771502
1488.0,8.39416,625.171,2801.37,2800.04,8.39266,0.769572
1491.0,8.3918,625.336,2805.59,2804.25,8.3918,0.768712
1494.0,8.38808,625.501,2809.81,2808.47,8.38808,0.764992
1497.0,8.38626,625.666,2814.03,2812.68,8.38626,0.763172
1500.0,8.38473,625.831,2818.24,2816.89,8.38458,0.761492
1503.0,8.38553,625.996,2822.45,2821.09,8.38414,0.761052
1506.0,8.38059,626.161,2826.66,2825.3,8.38133,0.758242
1509.0,8.3805,626.326,2830.87,2829.5,8.3805,0.757412
1512.0,8.38049,626.491,2835.07,2833.7,8.37952,0.756432
1515.0,8.37798,626.656,2839.27,2837.89,8.37798,0.754892
1518.0,8.37254,626.821,2843.48,2842.09,8.37413,0.751042
1521.0,8.37391,626.986,2847.67,2846.28,8.37307,0.749982
1524.0,8.36877,627.151,2851.87,2850.47,8.36915,0.746062
1527.0,8.37051,627.316,2856.06,2854.66,8.36915,0.746062
1530.0,8.36867,627.481,2860.25,2858.85,8.36898,0.745892
1533.0,8.36746,627.646,2864.44,2863.03,8.36746,0.744372
1536.0,8.36588,627.811,2868.63,2867.21,8.36649,0.743402
1539.0,8.36893,627.976,2872.82,2871.39,8.36859,0.745502
1542.0,8.36385,628.141,2877,2875.57,8.36533,0.742242
1545.0,8.36594,628.306,2881.18,2879.74,8.36562,0.742532
1548.0,8.36023,628.471,2885.36,2883.92,8.36023,0.737142
1551.0,8.3582,628.636,2889.53,2888.09,8.35813,0.735042
1554.0,8.35962,628.801,2893.71,2892.26,8.35863,0.735542
1557.0,8.35991,628.966,2897.88,2896.42,8.3595,0.736412
1560.0,8.35559,629.131,2902.05,2900.59,8.35559,0.732502
1563.0,8.35157,629.296,2906.21,2904.75,8.35157,0.728482
1566.0,8.34846,629.461,2910.38,2908.91,8.34846,0.725372
1569.0,8.34429,629.626,2914.54,2913.06,8.34617,0.723082
1572.0,8.34796,629.791,2918.7,2917.22,8.34722,0.724132
1575.0,8.34585,629.956,2922.86,2921.37,8.34585,0.722762
1578.0,8.34216,630.121,2927.02,2925.52,8.34216,0.719072
1581.0,8.34113,630.286,2931.17,2929.67,8.34097,0.717882
1584.0,8.33863,630.451,2935.32,2933.82,8.33868,0.715592
1587.0,8.33858,630.616,2939.47,2937.96,8.33868,0.715592
1590.0,8.34001,630.781,2943.62,2942.11,8.33973,0.716642
1593.0,8.33935,630.946,2947.77,2946.25,8.33935,0.716262
1596.0,8.34233,631.111,2951.91,2950.38,8.34233,0.719242
1599.0,8.34709,631.276,2956.05,2954.52,8.34709,0.724002
1602.0,8.3619,631.441,2960.19,2958.65,8.3619,0.738812
1605.0,8.38273,631.606,2964.33,2962.79,8.38273,0.759642
1608.0,8.39055,631.771,2968.46,2966.92,8.39055,0.767462
1611.0,8.39136,631.936,2972.6,2971.04,8.39136,0.768272
1614.0,8.37944,632.101,2976.73,2975.17,8.37944,0.756352
1617.0,8.35434,632.266,2980.85,2979.29,8.35434,0.731252
1620.0,8.33387,632.431,2984.98,2983.41,8.33387,0.710782
1623.0,8.316,632.596,2989.1,2987.53,8.316,0.692912
1626.0,8.3119,632.761,2993.23,2991.65,8.31193,0.688842
1629.0,8.31303,632.926,2997.35,2995.76,8.31303,0.689942
1632.0,8.31802,633.091,3001.46,2999.87,8.31802,0.694932
1635.0,8.32043,633.256,3005.58,3003.98,8.31967,0.696582
1638.0,8.31725,633.421,3009.69,3008.09,8.31725,0.694162
1641.0,8.30306,633.585,3013.8,3012.2,8.30306,0.679972
1644.0,8.28961,633.75,3017.91,3016.3,8.28961,0.666522
1647.0,8.2843,633.915,3022.02,3020.4,8.28376,0.660672
1650.0,8.27359,634.08,3026.12,3024.5,8.27359,0.650502
1653.0,8.26698,634.245,3030.23,3028.6,8.26698,0.643892
1656.0,8.26379,634.41,3034.33,3032.69,8.26452,0.641432
1659.0,8.26262,634.575,3038.42,3036.79,8.26262,0.639532
1662.0,8.26238,634.74,3042.52,3040.88,8.2604,0.637312
1665.0,8.25621,634.905,3046.61,3044.97,8.25638,0.633292
1668.0,8.2524,635.07,3050.71,3049.05,8.2524,0.629312
1671.0,8.25052,635.235,3054.8,3053.14,8.25052,0.627432
1674.0,8.24888,635.4,3058.88,3057.22,8.24888,0.625792
1677.0,8.24335,635.565,3062.97,3061.3,8.24444,0.621352
1680.0,8.24138,635.73,3067.05,3065.38,8.24138,0.618292
1683.0,8.238,635.895,3071.13,3069.45,8.23674,0.613652
1686.0,8.23373,636.06,3075.21,3073.53,8.23373,0.610642
1689.0,8.2292,636.225,3079.29,3077.6,8.23085,0.607762
1692.0,8.22922,636.39,3083.36,3081.67,8.22922,0.606132
1695.0,8.22399,636.555,3087.44,3085.74,8.22473,0.601642
1698.0,8.22696,636.72,3091.51,3089.8,8.22578,0.602692
1701.0,8.22309,636.885,3095.58,3093.87,8.22309,0.600002
1704.0,8.21939,637.05,3099.64,3097.93,8.21939,0.596302
1707.0,8.21983,637.215,3103.71,3101.99,8.21847,0.595382
1710.0,8.21491,637.38,3107.77,3106.04,8.21622,0.593132
1713.0,8.21214,637.545,3111.83,3110.1,8.21214,0.589052
1716.0,8.21029,637.71,3115.89,3114.15,8.21029,0.587202
1719.0,8.20987,637.875,3119.94,3118.2,8.20987,0.586782
1722.0,8.20947,638.04,3124,3122.25,8.21042,0.587332
1725.0,8.20833,638.205,3128.05,3126.3,8.20833,0.585242
1728.0,8.20746,638.37,3132.1,3130.34,8.20712,0.584032
1731.0,8.20635,638.535,3136.15,3134.38,8.20635,0.583262
1734.0,8.20648,638.7,3140.19,3138.42,8.20581,0.582722
1737.0,8.20568,638.865,3144.24,3142.46,8.2048,0.581712
1740.0,8.20114,639.03,3148.28,3146.5,8.20114,0.578052
1743.0,8.19261,639.195,3152.32,3150.53,8.19446,0.571372
1746.0,8.19573,639.36,3156.35,3154.56,8.19446,0.571372
1749.0,8.19311,639.525,3160.39,3158.59,8.19311,0.570022
1752.0,8.1865,639.69,3164.42,3162.62,8.1865,0.563412
1755.0,8.18347,639.855,3168.45,3166.65,8.18365,0.560562
1758.0,8.18151,640.02,3172.48,3170.67,8.18151,0.558422
1761.0,8.1746,640.185,3176.51,3174.69,8.1746,0.551512
1764.0,8.17489,640.35,3180.53,3178.71,8.17412,0.551032
1767.0,8.17025,640.515,3184.55,3182.73,8.17025,0.547162
1770.0,8.16758,640.68,3188.58,3186.74,8.16758,0.544492
1773.0,8.16147,640.845,3192.59,3190.76,8.16147,0.538382
1776.0,8.16069,641.01,3196.61,3194.77,8.16069,0.537602
1779.0,8.15875,641.175,3200.62,3198.78,8.15875,0.535662
1782.0,8.15866,641.34,3204.64,3202.78,8.1574,0.534312
1785.0,8.15439,641.505,3208.65,3206.79,8.15485,0.531762
1788.0,8.15088,641.67,3212.65,3210.79,8.15088,0.527792
1791.0,8.14679,641.835,3216.66,3214.79,8.14679,0.523702
1794.0,8.14837,642,3220.66,3218.79,8.14657,0.523482
1797.0,8.14393,642.165,3224.67,3222.79,8.14504,0.521952
1800.0,8.14108,642.33,3228.67,3226.78,8.14111,0.518022
1803.0,8.13953,642.495,3232.66,3230.78,8.13953,0.516442
1806.0,8.13722,642.66,3236.66,3234.77,8.13604,0.512952
1809.0,8.13212,642.825,3240.65,3238.76,8.13321,0.510122
1812.0,8.13354,642.99,3244.65,3242.74,8.13235,0.509262
1815.0,8.13172,643.155,3248.64,3246.73,8.13172,0.508632
1818.0,8.12646,643.32,3252.62,3250.71,8.12654,0.503452
1821.0,8.1284,643.485,3256.61,3254.69,8.12654,0.503452
1824.0,8.12166,643.65,3260.59,3258.67,8.12193,0.498842
1827.0,8.12198,643.815,3264.57,3262.64,8.12162,0.498532
1830.0,8.11923,643.98,3268.55,3266.62,8.11923,0.496142
1833.0,8.11981,644.145,3272.53,3270.59,8.11857,0.495482
1836.0,8.1134,644.31,3276.51,3274.56,8.1134,0.490312
1839.0,8.11271,644.475,3280.48,3278.53,8.11287,0.489782
1842.0,8.11099,644.64,3284.45,3282.5,8.11099,0.487902
1845.0,8.10881,644.805,3288.42,3286.46,8.109,0.485912
1848.0,8.10723,644.97,3292.39,3290.42,8.10806,0.484972
1851.0,8.10573,645.135,3296.35,3294.38,8.10573,0.482642
1854.0,8.10105,645.3,3300.31,3298.34,8.10105,0.477962
1857.0,8.09747,645.465,3304.28,3302.3,8.09736,0.474272
1860.0,8.09661,645.63,3308.23,3306.25,8.09661,0.473522
1863.0,8.09316,645.795,3312.19,3310.2,8.09316,0.470072
1866.0,8.09465,645.96,3316.15,3314.15,8.09275,0.469662
1869.0,8.09091,646.125,3320.1,3318.1,8.09166,0.468572
1872.0,8.09186,646.29,3324.05,3322.05,8.09145,0.468362
1875.0,8.08827,646.455,3328,3325.99,8.08827,0.465182
1878.0,8.08609,646.619,3331.95,3329.93,8.08609,0.463002
1881.0,8.0846,646.784,3335.89,3333.87,8.08489,0.461802
1884.0,8.08343,646.949,3339.83,3337.81,8.08366,0.460572
1887.0,8.08509,647.114,3343.78,3341.74,8.08218,0.459092
1890.0,8.07759,647.279,3347.71,3345.68,8.07974,0.456652
1893.0,8.08058,647.444,3351.65,3349.61,8.07974,0.456652
1896.0,8.07644,647.609,3355.59,3353.54,8.0765,0.453412
1899.0,8.07432,647.774,3359.52,3357.47,8.07432,0.451232
1902.0,8.0714,647.939,3363.45,3361.39,8.0716,0.448512
1905.0,8.07074,648.104,3367.38,3365.32,8.07007,0.446982
1908.0,8.06783,648.269,3371.31,3369.24,8.06858,0.445492
1911.0,8.06881,648.434,3375.23,3373.16,8.06845,0.445362
1914.0,8.06402,648.599,3379.15,3377.08,8.06402,0.440932
1917.0,8.06183,648.764,3383.07,3380.99,8.06183,0.438742
1920.0,8.06401,648.929,3386.99,3384.91,8.06251,0.439422
1923.0,8.06003,649.094,3390.91,3388.82,8.06085,0.437762
1926.0,8.05904,649.259,3394.83,3392.73,8.05904,0.435952
1929.0,8.05707,649.424,3398.74,3396.64,8.05707,0.433982
1932.0,8.05552,649.589,3402.65,3400.54,8.05552,0.432432
1935.0,8.05416,649.754,3406.56,3404.45,8.05314,0.430052
1938.0,8.04823,649.919,3410.47,3408.35,8.04823,0.425142
1941.0,8.04762,650.084,3414.37,3412.25,8.04684,0.423752
1944.0,8.04424,650.249,3418.27,3416.15,8.04449,0.421402
1947.0,8.04374,650.414,3422.17,3420.04,8.0437,0.420612
1950.0,8.04166,650.579,3426.07,3423.94,8.04166,0.418572
1953.0,8.03841,650.744,3429.97,3427.83,8.03879,0.415702
1956.0,8.03845,650.909,3433.87,3431.72,8.03845,0.415362
1959.0,8.03437,651.074,3437.76,3435.61,8.03437,0.411282
1962.0,8.03094,651.239,3441.65,3439.49,8.03094,0.407852
1965.0,8.02962,651.404,3445.54,3443.38,8.02898,0.405892
1968.0,8.02791,651.569,3449.43,3447.26,8.02884,0.405752
1971.0,8.02967,651.734,3453.31,3451.14,8.0288,0.405712
1974.0,8.02743,651.899,3457.2,3455.02,8.02743,0.404342
1977.0,8.0231,652.064,3461.08,3458.89,8.02377,0.400682
1980.0,8.0248,652.229,3464.96,3462.77,8.02377,0.400682
1983.0,8.01869,652.394,3468.83,3466.64,8.01869,0.395602
1986.0,8.01956,652.559,3472.71,3470.51,8.01846,0.395372
1989.0,8.01762,652.724,3476.58,3474.38,8.01762,0.394532
1992.0,8.0145,652.889,3480.45,3478.25,8.01553,0.392442
1995.0,8.01673,653.054,3484.32,3482.11,8.01479,0.391702
1998.0,8.01315,653.219,3488.19,3485.97,8.01315,0.390062
2001.0,8.00908,653.384,3492.06,3489.83,8.00923,0.386142
2004.0,8.00866,653.549,3495.92,3493.69,8.00866,0.385572
2007.0,8.00897,653.714,3499.78,3497.55,8.00897,0.385882
2010.0,8.00817,653.879,3503.64,3501.4,8.00817,0.385082
2013.0,8.00677,654.044,3507.5,3505.26,8.00677,0.383682
2016.0,7.99721,654.209,3511.36,3509.11,7.99924,0.376152
2019.0,7.99946,654.374,3515.21,3512.96,7.99851,0.375422
2022.0,7.99771,654.539,3519.06,3516.8,7.99771,0.374622
2025.0,7.99681,654.704,3522.91,3520.65,7.99613,0.373042
2028.0,7.99207,654.869,3526.76,3524.49,7.99207,0.368982
2031.0,7.9901,655.034,3530.61,3528.33,7.9901,0.367012
2034.0,7.98737,655.199,3534.45,3532.17,7.98819,0.365102
2037.0,7.98785,655.364,3538.29,3536.01,7.9881,0.365012
2040.0,7.98963,655.529,3542.13,3539.85,7.98831,0.365222
2043.0,7.98441,655.694,3545.97,3543.68,7.98441,0.361322
2046.0,7.98302,655.859,3549.81,3547.51,7.98279,0.359702
2047.0,7.98247,655.914,3551.09,3548.79,7.98247,0.359382