File: data/processed/processed_data/2024-09-03/2024-09-03_calcitecrystal_n_n_y_solid_5011_0_5.csv
Pixels #,Intensity (a.u.),Wavelength (nm),Raman shift (cm-1),Raman shift (cm-1) adjusted,Filtered Intensity (a.u.),Baselined Filtered Intensity (a.u.)
0.0,1.61435,543.337,392.223,393.994,1.61435,-0.0150226
3.0,1.61457,543.502,397.81,399.573,1.61497,-0.0144027
6.0,1.6162,543.667,403.394,405.15,1.61623,-0.0131429
9.0,1.61632,543.832,408.974,410.723,1.61623,-0.0131432
12.0,1.61549,543.997,414.551,416.293,1.61549,-0.0138837
15.0,1.61576,544.162,420.125,421.859,1.61576,-0.0136142
18.0,1.61682,544.327,425.695,427.422,1.61662,-0.0127549
21.0,1.61574,544.492,431.261,432.981,1.61574,-0.0136357
24.0,1.61441,544.657,436.825,438.537,1.61441,-0.0149667
27.0,1.61484,544.822,442.385,444.09,1.61445,-0.0149277
30.0,1.6154,544.987,447.941,449.64,1.6154,-0.0139789
33.0,1.61632,545.152,453.494,455.186,1.61654,-0.0128402
36.0,1.61747,545.317,459.044,460.728,1.61747,-0.0119117
39.0,1.6173,545.482,464.591,466.268,1.6173,-0.0120832
42.0,1.61662,545.647,470.134,471.804,1.61677,-0.0126149
45.0,1.61679,545.812,475.674,477.337,1.61679,-0.0125966
48.0,1.61902,545.977,481.21,482.866,1.61809,-0.0112985
51.0,1.6158,546.142,486.743,488.392,1.61687,-0.0125205
54.0,1.61627,546.307,492.273,493.915,1.61627,-0.0131225
57.0,1.61677,546.472,497.8,499.434,1.61618,-0.0132147
60.0,1.61604,546.637,503.323,504.95,1.61611,-0.0132871
63.0,1.61524,546.802,508.843,510.463,1.61608,-0.0133195
66.0,1.61703,546.967,514.359,515.972,1.61703,-0.0123721
69.0,1.61857,547.132,519.872,521.478,1.61805,-0.0113547
72.0,1.61747,547.297,525.382,526.981,1.61738,-0.0120275
75.0,1.61759,547.462,530.888,532.48,1.61728,-0.0121304
78.0,1.6155,547.627,536.392,537.976,1.6166,-0.0128134
81.0,1.61816,547.792,541.891,543.469,1.61759,-0.0118265
84.0,1.61697,547.957,547.388,548.958,1.61733,-0.0120897
87.0,1.61724,548.122,552.881,554.444,1.61747,-0.011953
90.0,1.61825,548.287,558.371,559.927,1.61769,-0.0117364
93.0,1.61692,548.452,563.858,565.407,1.61692,-0.0125099
96.0,1.61646,548.617,569.341,570.883,1.61638,-0.0130536
99.0,1.61621,548.782,574.821,576.356,1.61621,-0.0132273
102.0,1.61516,548.947,580.298,581.826,1.61603,-0.0134112
105.0,1.61902,549.112,585.771,587.292,1.61731,-0.0121352
108.0,1.61459,549.277,591.241,592.755,1.61507,-0.0143793
111.0,1.61579,549.442,596.708,598.215,1.61507,-0.0143835
114.0,1.61518,549.607,602.172,603.671,1.61556,-0.0138978
117.0,1.61728,549.772,607.632,609.125,1.6162,-0.0132623
120.0,1.61588,549.937,613.089,614.575,1.6162,-0.0132669
123.0,1.61668,550.102,618.543,620.021,1.61668,-0.0127916
126.0,1.61637,550.267,623.993,625.465,1.61637,-0.0131064
129.0,1.61624,550.432,629.44,630.905,1.6159,-0.0135814
132.0,1.61439,550.597,634.884,636.342,1.61499,-0.0144964
135.0,1.61534,550.762,640.325,641.776,1.61499,-0.0145016
138.0,1.61562,550.927,645.762,647.206,1.61546,-0.014037
141.0,1.61533,551.092,651.197,652.633,1.61556,-0.0139424
144.0,1.61634,551.257,656.627,658.057,1.61622,-0.013288
147.0,1.61588,551.422,662.055,663.478,1.61588,-0.0136337
150.0,1.61627,551.587,667.48,668.895,1.61627,-0.0132495
153.0,1.61531,551.752,672.901,674.309,1.61605,-0.0134754
156.0,1.61668,551.917,678.319,679.72,1.61598,-0.0135515
159.0,1.61646,552.082,683.733,685.128,1.61605,-0.0134876
162.0,1.61633,552.247,689.145,690.533,1.6161,-0.0134439
165.0,1.61562,552.412,694.553,695.934,1.61628,-0.0132704
168.0,1.61775,552.577,699.958,701.332,1.61775,-0.0118069
171.0,1.61755,552.742,705.36,706.727,1.61779,-0.0117735
174.0,1.61825,552.907,710.758,712.118,1.61779,-0.0117803
177.0,1.61652,553.072,716.154,717.507,1.61674,-0.0128371
180.0,1.61723,553.237,721.546,722.892,1.61687,-0.0127141
183.0,1.61605,553.402,726.935,728.274,1.61662,-0.0129711
186.0,1.61745,553.567,732.32,733.652,1.61745,-0.0121483
189.0,1.61843,553.732,737.703,739.028,1.61843,-0.0111756
192.0,1.61836,553.897,743.082,744.4,1.61798,-0.011633
195.0,1.61764,554.062,748.458,749.769,1.61798,-0.0116405
198.0,1.61905,554.227,753.831,755.135,1.61905,-0.0105781
201.0,1.62009,554.392,759.201,760.498,1.61991,-0.00972585
204.0,1.61984,554.557,764.567,765.858,1.62002,-0.00962364
207.0,1.6198,554.722,769.93,771.214,1.62002,-0.00963152
210.0,1.62177,554.887,775.29,776.567,1.62177,-0.00788948
213.0,1.6225,555.052,780.647,781.917,1.6225,-0.00716752
216.0,1.62509,555.217,786.001,787.264,1.62509,-0.00458562
219.0,1.62476,555.382,791.352,792.608,1.62553,-0.00415377
222.0,1.6262,555.546,796.699,797.948,1.62584,-0.00385195
225.0,1.62837,555.711,802.043,803.285,1.62832,-0.00138017
228.0,1.62856,555.876,807.384,808.62,1.62856,-0.0011484
231.0,1.62864,556.041,812.722,813.951,1.6289,-0.000816644
234.0,1.63247,556.206,818.057,819.278,1.6313,0.00157511
237.0,1.63223,556.371,823.388,824.603,1.63223,0.00249687
240.0,1.63245,556.536,828.716,829.924,1.6328,0.00305866
243.0,1.63548,556.701,834.042,835.243,1.63548,0.00573048
246.0,1.6373,556.866,839.364,840.558,1.63727,0.00751235
249.0,1.63842,557.031,844.682,845.87,1.63852,0.00875428
252.0,1.63956,557.196,849.998,851.179,1.63956,0.00978629
255.0,1.64116,557.361,855.311,856.485,1.63997,0.0101884
258.0,1.63992,557.526,860.62,861.787,1.63992,0.0101306
261.0,1.64356,557.691,865.927,867.087,1.64333,0.0135329
264.0,1.6436,557.856,871.23,872.383,1.6436,0.0137953
267.0,1.64494,558.021,876.53,877.676,1.64494,0.0151278
270.0,1.64582,558.186,881.827,882.966,1.64576,0.0159405
273.0,1.64554,558.351,887.12,888.253,1.64554,0.0157133
276.0,1.64448,558.516,892.411,893.537,1.6449,0.0150663
279.0,1.64583,558.681,897.698,898.818,1.64583,0.0159894
282.0,1.64788,558.846,902.983,904.095,1.64788,0.0180326
285.0,1.64758,559.011,908.264,909.37,1.64775,0.017896
288.0,1.647,559.176,913.542,914.641,1.64678,0.0169195
291.0,1.64741,559.341,918.817,919.909,1.64741,0.0175433
294.0,1.64854,559.506,924.089,925.174,1.64845,0.0185771
297.0,1.64924,559.671,929.358,930.436,1.64924,0.0193611
300.0,1.64921,559.836,934.624,935.695,1.64921,0.0193253
303.0,1.64882,560.001,939.886,940.951,1.64909,0.0191997
306.0,1.64973,560.166,945.146,946.204,1.64973,0.0198343
309.0,1.64973,560.331,950.402,951.454,1.64973,0.019829
312.0,1.65092,560.496,955.656,956.7,1.64995,0.0200439
315.0,1.64823,560.661,960.906,961.944,1.64906,0.019149
318.0,1.64919,560.826,966.153,967.184,1.64916,0.0192442
321.0,1.64997,560.991,971.397,972.421,1.6502,0.0202796
324.0,1.65075,561.156,976.638,977.655,1.65087,0.0209452
327.0,1.65003,561.321,981.876,982.887,1.65053,0.020601
330.0,1.65106,561.486,987.111,988.115,1.6509,0.020967
333.0,1.65016,561.651,992.342,993.34,1.65016,0.0202232
336.0,1.65115,561.816,997.571,998.562,1.65115,0.0212096
339.0,1.65262,561.981,1002.8,1003.78,1.65172,0.0217761
342.0,1.65312,562.146,1008.02,1009,1.65312,0.0231728
345.0,1.65375,562.311,1013.24,1014.21,1.65396,0.0240098
348.0,1.65393,562.476,1018.45,1019.42,1.65393,0.023977
351.0,1.65604,562.641,1023.67,1024.63,1.65604,0.0260844
354.0,1.65557,562.806,1028.88,1029.83,1.65557,0.025612
357.0,1.65609,562.971,1034.09,1035.03,1.65581,0.0258498
360.0,1.65691,563.136,1039.29,1040.23,1.65691,0.0269479
363.0,1.65764,563.301,1044.49,1045.42,1.65745,0.0274862
366.0,1.65862,563.466,1049.69,1050.61,1.65862,0.0286548
369.0,1.65935,563.631,1054.88,1055.8,1.65942,0.0294536
372.0,1.66254,563.796,1060.08,1060.99,1.66254,0.0325726
375.0,1.66826,563.961,1065.27,1066.17,1.66826,0.0382916
378.0,1.70581,564.126,1070.45,1071.35,1.70581,0.0758406
381.0,1.8257,564.291,1075.63,1076.52,1.8257,0.19573
384.0,1.94282,564.456,1080.81,1081.7,1.94282,0.312849
387.0,1.93363,564.621,1085.99,1086.87,1.93363,0.303658
390.0,1.86217,564.786,1091.16,1092.03,1.86217,0.232197
393.0,1.7157,564.951,1096.34,1097.2,1.7157,0.0857257
396.0,1.66765,565.116,1101.5,1102.36,1.66765,0.0376747
399.0,1.66326,565.281,1106.67,1107.52,1.66326,0.0332837
402.0,1.6619,565.446,1111.83,1112.67,1.6619,0.0319227
405.0,1.66157,565.611,1116.99,1117.82,1.66169,0.0317117
408.0,1.66061,565.776,1122.14,1122.97,1.66061,0.0306307
411.0,1.66112,565.941,1127.3,1128.12,1.66112,0.0311399
414.0,1.66088,566.106,1132.45,1133.26,1.66088,0.0308991
417.0,1.65971,566.271,1137.59,1138.4,1.65971,0.0297286
420.0,1.66237,566.436,1142.74,1143.54,1.66196,0.0319783
423.0,1.6609,566.601,1147.88,1148.67,1.66142,0.031438
426.0,1.66162,566.766,1153.02,1153.81,1.66162,0.0316379
429.0,1.66224,566.931,1158.15,1158.93,1.66217,0.0321878
432.0,1.66328,567.096,1163.28,1164.06,1.6632,0.0332177
435.0,1.66336,567.261,1168.41,1169.18,1.6632,0.0332176
438.0,1.66057,567.426,1173.54,1174.3,1.66175,0.0317675
441.0,1.66314,567.591,1178.66,1179.42,1.66271,0.0327275
444.0,1.66262,567.756,1183.78,1184.53,1.66275,0.0327675
447.0,1.66409,567.921,1188.9,1189.64,1.66409,0.0341075
450.0,1.6642,568.086,1194.01,1194.75,1.66496,0.0349775
453.0,1.66545,568.251,1199.12,1199.85,1.6653,0.0353175
456.0,1.66601,568.416,1204.23,1204.95,1.66626,0.0362775
459.0,1.6676,568.58,1209.33,1210.05,1.66732,0.0373375
462.0,1.66704,568.745,1214.44,1215.15,1.66704,0.0370575
465.0,1.6667,568.91,1219.53,1220.24,1.66683,0.0368475
468.0,1.6679,569.075,1224.63,1225.33,1.66785,0.0378675
471.0,1.66778,569.24,1229.72,1230.42,1.66778,0.0377975
474.0,1.66714,569.405,1234.81,1235.5,1.66714,0.0371575
477.0,1.66862,569.57,1239.9,1240.58,1.66815,0.0381675
480.0,1.66787,569.735,1244.99,1245.66,1.66825,0.0382675
483.0,1.66928,569.9,1250.07,1250.73,1.66845,0.0384675
486.0,1.66822,570.065,1255.14,1255.8,1.66845,0.0384675
489.0,1.66847,570.23,1260.22,1260.87,1.66847,0.0384875
492.0,1.66928,570.395,1265.29,1265.94,1.66928,0.0392975
495.0,1.67219,570.56,1270.36,1271,1.67182,0.0418375
498.0,1.6714,570.725,1275.43,1276.06,1.67176,0.0417775
501.0,1.67094,570.89,1280.49,1281.12,1.67168,0.0416975
504.0,1.67096,571.055,1285.55,1286.17,1.67092,0.0409375
507.0,1.67171,571.22,1290.61,1291.22,1.67171,0.0417275
510.0,1.67179,571.385,1295.67,1296.27,1.67262,0.0426375
513.0,1.67343,571.55,1300.72,1301.32,1.67343,0.0434475
516.0,1.67383,571.715,1305.77,1306.36,1.67383,0.0438475
519.0,1.67536,571.88,1310.81,1311.4,1.675,0.0450175
522.0,1.67533,572.045,1315.86,1316.44,1.67521,0.0452275
525.0,1.67541,572.21,1320.9,1321.47,1.67534,0.0453575
528.0,1.67708,572.375,1325.94,1326.5,1.67615,0.0461675
531.0,1.67454,572.54,1330.97,1331.53,1.67571,0.0457275
534.0,1.67791,572.705,1336,1336.56,1.67791,0.0479275
537.0,1.67862,572.87,1341.03,1341.58,1.67869,0.0487075
540.0,1.67946,573.035,1346.06,1346.6,1.67934,0.0493575
543.0,1.68002,573.2,1351.08,1351.61,1.67985,0.0498675
546.0,1.68076,573.365,1356.1,1356.63,1.68066,0.0506775
549.0,1.6805,573.53,1361.12,1361.64,1.68144,0.0514575
552.0,1.68246,573.695,1366.13,1366.65,1.68161,0.0516275
555.0,1.68091,573.86,1371.14,1371.65,1.68167,0.0516875
558.0,1.68267,574.025,1376.15,1376.65,1.68267,0.0526875
561.0,1.68175,574.19,1381.16,1381.65,1.68175,0.0517675
564.0,1.68404,574.355,1386.16,1386.65,1.68404,0.0540575
567.0,1.68606,574.52,1391.16,1391.64,1.68507,0.0550875
570.0,1.68379,574.685,1396.16,1396.63,1.68473,0.0547475
573.0,1.68521,574.85,1401.15,1401.62,1.68521,0.0552275
576.0,1.68652,575.015,1406.14,1406.61,1.68652,0.0565375
579.0,1.68817,575.18,1411.13,1411.59,1.68789,0.0579075
582.0,1.68818,575.345,1416.12,1416.57,1.68847,0.0584875
585.0,1.69154,575.51,1421.1,1421.54,1.68985,0.0598675
588.0,1.69027,575.675,1426.08,1426.52,1.69036,0.0603775
591.0,1.69295,575.84,1431.06,1431.49,1.69295,0.0629675
594.0,1.69334,576.005,1436.03,1436.46,1.69337,0.0633875
597.0,1.69417,576.17,1441,1441.42,1.69303,0.0630475
600.0,1.69306,576.335,1445.97,1446.38,1.69303,0.0630475
603.0,1.6914,576.5,1450.94,1451.34,1.69216,0.0621775
606.0,1.69166,576.665,1455.9,1456.3,1.69231,0.0623275
609.0,1.69441,576.83,1460.86,1461.25,1.69441,0.0644275
612.0,1.69345,576.995,1465.82,1466.2,1.69484,0.0648575
615.0,1.69552,577.16,1470.77,1471.15,1.69486,0.0648775
618.0,1.69626,577.325,1475.72,1476.1,1.69626,0.0662775
621.0,1.69723,577.49,1480.67,1481.04,1.69723,0.0672475
624.0,1.69729,577.655,1485.62,1485.98,1.6975,0.0675175
627.0,1.69774,577.82,1490.56,1490.91,1.69759,0.0676075
630.0,1.69926,577.985,1495.5,1495.85,1.69926,0.0692775
633.0,1.70102,578.15,1500.44,1500.78,1.70076,0.0707775
636.0,1.7,578.315,1505.37,1505.71,1.70061,0.0706275
639.0,1.70034,578.48,1510.3,1510.63,1.70071,0.0707275
642.0,1.70122,578.645,1515.23,1515.55,1.70145,0.0714675
645.0,1.70344,578.81,1520.16,1520.47,1.70311,0.0731275
648.0,1.70224,578.975,1525.08,1525.39,1.70265,0.0726675
651.0,1.70303,579.14,1530,1530.31,1.70303,0.0730475
654.0,1.70518,579.305,1534.92,1535.22,1.70518,0.0751975
657.0,1.70548,579.47,1539.83,1540.13,1.70589,0.0759075
660.0,1.70751,579.635,1544.75,1545.03,1.70747,0.0774875
663.0,1.70823,579.8,1549.65,1549.93,1.70771,0.0777275
666.0,1.70748,579.965,1554.56,1554.83,1.70787,0.0778875
669.0,1.70814,580.13,1559.47,1559.73,1.7082,0.0782175
672.0,1.71095,580.295,1564.37,1564.63,1.71014,0.0801575
675.0,1.71004,580.46,1569.26,1569.52,1.71014,0.0801575
678.0,1.71112,580.625,1574.16,1574.41,1.71112,0.0811375
681.0,1.71249,580.79,1579.05,1579.29,1.71188,0.0818975
684.0,1.71099,580.955,1583.94,1584.18,1.71163,0.0816475
687.0,1.71229,581.12,1588.83,1589.06,1.71229,0.0823075
690.0,1.71224,581.285,1593.71,1593.94,1.71296,0.0829775
693.0,1.71421,581.45,1598.59,1598.81,1.71339,0.0834075
696.0,1.71503,581.614,1603.47,1603.68,1.71503,0.0850475
699.0,1.71523,581.779,1608.35,1608.55,1.71542,0.0854375
702.0,1.71493,581.944,1613.22,1613.42,1.71542,0.0854375
705.0,1.71751,582.109,1618.09,1618.28,1.71751,0.0875275
708.0,1.71905,582.274,1622.96,1623.15,1.71905,0.0890675
711.0,1.71916,582.439,1627.83,1628,1.71887,0.0888875
714.0,1.71793,582.604,1632.69,1632.86,1.71869,0.0887075
717.0,1.71958,582.769,1637.55,1637.71,1.71872,0.0887375
720.0,1.71741,582.934,1642.4,1642.56,1.71791,0.0879275
723.0,1.71885,583.099,1647.26,1647.41,1.71885,0.0888675
726.0,1.7217,583.264,1652.11,1652.26,1.72105,0.0910675
729.0,1.7205,583.429,1656.96,1657.1,1.72107,0.0910875
732.0,1.72375,583.594,1661.8,1661.94,1.72283,0.0928475
735.0,1.72276,583.759,1666.65,1666.77,1.72283,0.0928475
738.0,1.72357,583.924,1671.49,1671.61,1.72388,0.0938975
741.0,1.72418,584.089,1676.32,1676.44,1.72449,0.0945075
744.0,1.7251,584.254,1681.16,1681.27,1.72509,0.0951075
747.0,1.72553,584.419,1685.99,1686.09,1.72553,0.0955475
750.0,1.7281,584.584,1690.82,1690.92,1.72765,0.0976675
753.0,1.72783,584.749,1695.65,1695.74,1.72783,0.0978475
756.0,1.72926,584.914,1700.47,1700.55,1.72925,0.0992675
759.0,1.72951,585.079,1705.29,1705.37,1.72951,0.0995275
762.0,1.72948,585.244,1710.11,1710.18,1.7298,0.0998175
765.0,1.72973,585.409,1714.92,1714.99,1.72973,0.0997475
768.0,1.732,585.574,1719.74,1719.8,1.732,0.102018
771.0,1.73154,585.739,1724.55,1724.6,1.73234,0.102358
774.0,1.73373,585.904,1729.35,1729.4,1.73373,0.103748
777.0,1.73497,586.069,1734.16,1734.2,1.73497,0.104988
780.0,1.73634,586.234,1738.96,1739,1.73644,0.106458
783.0,1.74074,586.399,1743.76,1743.79,1.74074,0.110758
786.0,1.7431,586.564,1748.56,1748.58,1.74233,0.112348
789.0,1.74365,586.729,1753.35,1753.37,1.74258,0.112598
792.0,1.73998,586.894,1758.14,1758.15,1.73998,0.109998
795.0,1.73832,587.059,1762.93,1762.94,1.7382,0.108218
798.0,1.73554,587.224,1767.72,1767.72,1.73692,0.106938
801.0,1.73798,587.389,1772.5,1772.49,1.73789,0.107908
804.0,1.73813,587.554,1777.28,1777.27,1.73789,0.107908
807.0,1.73724,587.719,1782.06,1782.04,1.73732,0.107338
810.0,1.73787,587.884,1786.83,1786.81,1.7378,0.107818
813.0,1.73878,588.049,1791.61,1791.57,1.73878,0.108798
816.0,1.73983,588.214,1796.38,1796.34,1.73983,0.109848
819.0,1.74002,588.379,1801.14,1801.1,1.74017,0.110188
822.0,1.74141,588.544,1805.91,1805.86,1.74137,0.111388
825.0,1.74165,588.709,1810.67,1810.61,1.74265,0.112668
828.0,1.74318,588.874,1815.43,1815.37,1.74294,0.112958
831.0,1.74208,589.039,1820.19,1820.12,1.74258,0.112598
834.0,1.7437,589.204,1824.94,1824.86,1.7437,0.113718
837.0,1.74498,589.369,1829.69,1829.61,1.74454,0.114558
840.0,1.74383,589.534,1834.44,1834.35,1.74441,0.114428
843.0,1.74611,589.699,1839.18,1839.09,1.74611,0.116128
846.0,1.74733,589.864,1843.93,1843.83,1.74733,0.117348
849.0,1.74783,590.029,1848.67,1848.56,1.74796,0.117978
852.0,1.74822,590.194,1853.41,1853.29,1.748,0.118018
855.0,1.74924,590.359,1858.14,1858.02,1.74905,0.119068
858.0,1.74967,590.524,1862.87,1862.75,1.74967,0.119688
861.0,1.75143,590.689,1867.6,1867.47,1.75143,0.121448
864.0,1.75192,590.854,1872.33,1872.2,1.752,0.122018
867.0,1.75256,591.019,1877.06,1876.91,1.75217,0.122188
870.0,1.75258,591.184,1881.78,1881.63,1.75258,0.122598
873.0,1.75301,591.349,1886.5,1886.34,1.75301,0.123028
876.0,1.75416,591.514,1891.21,1891.05,1.75406,0.124078
879.0,1.75387,591.679,1895.93,1895.76,1.75387,0.123888
882.0,1.7539,591.844,1900.64,1900.47,1.75444,0.124458
885.0,1.75568,592.009,1905.35,1905.17,1.75568,0.125698
888.0,1.75603,592.174,1910.05,1909.87,1.75603,0.126048
891.0,1.75547,592.339,1914.76,1914.57,1.75547,0.125488
894.0,1.75575,592.504,1919.46,1919.26,1.75575,0.125768
897.0,1.75697,592.669,1924.16,1923.96,1.75683,0.126848
900.0,1.75799,592.834,1928.85,1928.64,1.75736,0.127378
903.0,1.75732,592.999,1933.55,1933.33,1.75807,0.128088
906.0,1.75826,593.164,1938.24,1938.02,1.75872,0.128738
909.0,1.75927,593.329,1942.93,1942.7,1.75876,0.128778
912.0,1.75825,593.494,1947.61,1947.38,1.75825,0.128268
915.0,1.75901,593.659,1952.29,1952.05,1.75926,0.129278
918.0,1.76021,593.824,1956.97,1956.73,1.76021,0.130228
921.0,1.76122,593.989,1961.65,1961.4,1.76118,0.131198
924.0,1.76118,594.154,1966.33,1966.07,1.761,0.131018
927.0,1.75923,594.319,1971,1970.73,1.75996,0.129978
930.0,1.76195,594.484,1975.67,1975.4,1.76195,0.131968
933.0,1.76319,594.648,1980.33,1980.06,1.76299,0.133008
936.0,1.76248,594.813,1985,1984.72,1.76248,0.132498
939.0,1.76551,594.978,1989.66,1989.37,1.76551,0.135528
942.0,1.76341,595.143,1994.32,1994.03,1.76341,0.133428
945.0,1.76346,595.308,1998.98,1998.68,1.76346,0.133478
948.0,1.76358,595.473,2003.63,2003.33,1.76389,0.133908
951.0,1.76673,595.638,2008.28,2007.97,1.76595,0.135968
954.0,1.76378,595.803,2012.93,2012.62,1.76443,0.134448
957.0,1.76442,595.968,2017.58,2017.26,1.76443,0.134448
960.0,1.7658,596.133,2022.22,2021.89,1.7658,0.135818
963.0,1.76844,596.298,2026.86,2026.53,1.76779,0.137808
966.0,1.76674,596.463,2031.5,2031.16,1.76779,0.137808
969.0,1.76851,596.628,2036.14,2035.79,1.76851,0.138528
972.0,1.76913,596.793,2040.77,2040.42,1.76913,0.139148
975.0,1.76906,596.958,2045.4,2045.05,1.76906,0.139078
978.0,1.76823,597.123,2050.03,2049.67,1.76824,0.138258
981.0,1.76924,597.288,2054.66,2054.29,1.76946,0.139478
984.0,1.76936,597.453,2059.28,2058.91,1.76936,0.139378
987.0,1.76922,597.618,2063.9,2063.52,1.76922,0.139238
990.0,1.77016,597.783,2068.52,2068.13,1.76985,0.139868
993.0,1.76925,597.948,2073.14,2072.74,1.76985,0.139868
996.0,1.77269,598.113,2077.75,2077.35,1.77138,0.141398
999.0,1.77112,598.278,2082.36,2081.95,1.77118,0.141198
1002.0,1.77263,598.443,2086.97,2086.56,1.77198,0.141998
1005.0,1.7701,598.608,2091.57,2091.16,1.77017,0.140188
1008.0,1.77133,598.773,2096.18,2095.75,1.77133,0.141348
1011.0,1.77414,598.938,2100.78,2100.35,1.77359,0.143608
1014.0,1.77294,599.103,2105.38,2104.94,1.77302,0.143038
1017.0,1.77299,599.268,2109.97,2109.53,1.77302,0.143038
1020.0,1.77476,599.433,2114.56,2114.12,1.77454,0.144558
1023.0,1.77425,599.598,2119.15,2118.7,1.77441,0.144428
1026.0,1.7741,599.763,2123.74,2123.28,1.77453,0.144548
1029.0,1.77569,599.928,2128.33,2127.86,1.77539,0.145408
1032.0,1.77568,600.093,2132.91,2132.44,1.77541,0.145428
1035.0,1.77569,600.258,2137.49,2137.01,1.77569,0.145708
1038.0,1.77487,600.423,2142.07,2141.59,1.77575,0.145768
1041.0,1.77716,600.588,2146.64,2146.15,1.77714,0.147158
1044.0,1.77724,600.753,2151.22,2150.72,1.77716,0.147178
1047.0,1.77598,600.918,2155.79,2155.29,1.77598,0.145998
1050.0,1.77592,601.083,2160.35,2159.85,1.77665,0.146668
1053.0,1.77719,601.248,2164.92,2164.41,1.77704,0.147058
1056.0,1.77691,601.413,2169.48,2168.96,1.77705,0.147068
1059.0,1.77887,601.578,2174.04,2173.52,1.77769,0.147708
1062.0,1.77808,601.743,2178.6,2178.07,1.77808,0.148098
1065.0,1.77753,601.908,2183.16,2182.62,1.77816,0.148178
1068.0,1.77974,602.073,2187.71,2187.17,1.77876,0.148778
1071.0,1.77991,602.238,2192.26,2191.71,1.77991,0.149928
1074.0,1.78027,602.403,2196.81,2196.25,1.78033,0.150348
1077.0,1.77897,602.568,2201.35,2200.79,1.77926,0.149278
1080.0,1.7797,602.733,2205.89,2205.33,1.77926,0.149278
1083.0,1.78093,602.898,2210.43,2209.86,1.78093,0.150948
1086.0,1.78324,603.063,2214.97,2214.4,1.78171,0.151728
1089.0,1.78076,603.228,2219.51,2218.92,1.7813,0.151318
1092.0,1.78172,603.393,2224.04,2223.45,1.78172,0.151738
1095.0,1.78231,603.558,2228.57,2227.98,1.78299,0.153008
1098.0,1.78392,603.723,2233.1,2232.5,1.78328,0.153298
1101.0,1.78502,603.888,2237.62,2237.02,1.78446,0.154478
1104.0,1.78394,604.053,2242.15,2241.54,1.78394,0.153958
1107.0,1.78124,604.218,2246.67,2246.05,1.78304,0.153058
1110.0,1.78447,604.383,2251.19,2250.56,1.78432,0.154338
1113.0,1.78619,604.548,2255.7,2255.07,1.78621,0.156228
1116.0,1.78516,604.713,2260.21,2259.58,1.78541,0.155428
1119.0,1.78526,604.878,2264.72,2264.08,1.78524,0.155258
1122.0,1.78489,605.043,2269.23,2268.59,1.78489,0.154908
1125.0,1.78529,605.208,2273.74,2273.09,1.78529,0.155308
1128.0,1.78487,605.373,2278.24,2277.58,1.78517,0.155188
1131.0,1.78546,605.538,2282.74,2282.08,1.78546,0.155478
1134.0,1.78637,605.703,2287.24,2286.57,1.78588,0.155898
1137.0,1.78623,605.868,2291.74,2291.06,1.78623,0.156248
1140.0,1.78605,606.033,2296.23,2295.55,1.78691,0.156928
1143.0,1.78741,606.198,2300.72,2300.03,1.78741,0.157428
1146.0,1.78785,606.363,2305.21,2304.52,1.78779,0.157808
1149.0,1.78613,606.528,2309.7,2309,1.78613,0.156148
1152.0,1.78608,606.693,2314.18,2313.47,1.78608,0.156098
1155.0,1.78855,606.858,2318.66,2317.95,1.78855,0.158568
1158.0,1.78902,607.023,2323.14,2322.42,1.78902,0.159038
1161.0,1.78728,607.188,2327.62,2326.89,1.78728,0.157298
1164.0,1.78765,607.353,2332.09,2331.36,1.78737,0.157388
1167.0,1.78781,607.518,2336.56,2335.83,1.78771,0.157728
1170.0,1.78745,607.682,2341.03,2340.29,1.78806,0.158078
1173.0,1.79023,607.847,2345.5,2344.75,1.78891,0.158928
1176.0,1.7885,608.012,2349.96,2349.21,1.78886,0.158878
1179.0,1.78838,608.177,2354.42,2353.67,1.78894,0.158958
1182.0,1.7908,608.342,2358.88,2358.12,1.78979,0.159808
1185.0,1.78717,608.507,2363.34,2362.57,1.78867,0.158688
1188.0,1.78845,608.672,2367.79,2367.02,1.78837,0.158388
1191.0,1.78848,608.837,2372.25,2371.47,1.78848,0.158498
1194.0,1.79086,609.002,2376.7,2375.91,1.79005,0.160068
1197.0,1.7891,609.167,2381.14,2380.35,1.7894,0.159418
1200.0,1.78883,609.332,2385.59,2384.79,1.78883,0.158848
1203.0,1.78839,609.497,2390.03,2389.23,1.789,0.159018
1206.0,1.78909,609.662,2394.47,2393.66,1.78916,0.159178
1209.0,1.78894,609.827,2398.91,2398.09,1.78894,0.158958
1212.0,1.78773,609.992,2403.34,2402.52,1.78829,0.158308
1215.0,1.78851,610.157,2407.78,2406.95,1.78783,0.157848
1218.0,1.78623,610.322,2412.21,2411.38,1.78659,0.156608
1221.0,1.7898,610.487,2416.63,2415.8,1.78928,0.159298
1224.0,1.78854,610.652,2421.06,2420.22,1.78865,0.158668
1227.0,1.78842,610.817,2425.48,2424.64,1.78818,0.158198
1230.0,1.78747,610.982,2429.9,2429.05,1.78736,0.157378
1233.0,1.7874,611.147,2434.32,2433.46,1.78713,0.157148
1236.0,1.7878,611.312,2438.74,2437.87,1.78784,0.157858
1239.0,1.78803,611.477,2443.15,2442.28,1.7882,0.158218
1242.0,1.78974,611.642,2447.56,2446.69,1.78853,0.158548
1245.0,1.78685,611.807,2451.97,2451.09,1.78844,0.158458
1248.0,1.78944,611.972,2456.38,2455.49,1.78844,0.158458
1251.0,1.78689,612.137,2460.78,2459.89,1.78689,0.156908
1254.0,1.78763,612.302,2465.19,2464.29,1.78763,0.157648
1257.0,1.78738,612.467,2469.59,2468.68,1.78738,0.157398
1260.0,1.78604,612.632,2473.98,2473.07,1.78642,0.156438
1263.0,1.78636,612.797,2478.38,2477.46,1.78616,0.156178
1266.0,1.78619,612.962,2482.77,2481.85,1.78619,0.156208
1269.0,1.78715,613.127,2487.16,2486.23,1.78715,0.157168
1272.0,1.78643,613.292,2491.55,2490.61,1.78643,0.156448
1275.0,1.7825,613.457,2495.93,2494.99,1.78353,0.153548
1278.0,1.78494,613.622,2500.32,2499.37,1.78494,0.154958
1281.0,1.7855,613.787,2504.7,2503.75,1.7855,0.155518
1284.0,1.78358,613.952,2509.07,2508.12,1.7839,0.153918
1287.0,1.78534,614.117,2513.45,2512.49,1.78436,0.154378
1290.0,1.78327,614.282,2517.82,2516.86,1.78373,0.153748
1293.0,1.78507,614.447,2522.19,2521.22,1.78407,0.154088
1296.0,1.78351,614.612,2526.56,2525.59,1.78351,0.153528
1299.0,1.78403,614.777,2530.93,2529.95,1.78302,0.153038
1302.0,1.78126,614.942,2535.29,2534.3,1.78215,0.152168
1305.0,1.78353,615.107,2539.66,2538.66,1.78215,0.152168
1308.0,1.78084,615.272,2544.02,2543.01,1.78084,0.150858
1311.0,1.78079,615.437,2548.37,2547.37,1.78066,0.150678
1314.0,1.78029,615.602,2552.73,2551.72,1.78037,0.150388
1317.0,1.78112,615.767,2557.08,2556.06,1.78107,0.151088
1320.0,1.78014,615.932,2561.43,2560.41,1.78014,0.150158
1323.0,1.77959,616.097,2565.78,2564.75,1.7797,0.149718
1326.0,1.78002,616.262,2570.12,2569.09,1.77951,0.149528
1329.0,1.77887,616.427,2574.47,2573.43,1.77882,0.148838
1332.0,1.77686,616.592,2578.81,2577.76,1.77686,0.146878
1335.0,1.77541,616.757,2583.15,2582.09,1.77611,0.146128
1338.0,1.77741,616.922,2587.48,2586.42,1.77741,0.147428
1341.0,1.77717,617.087,2591.82,2590.75,1.77717,0.147188
1344.0,1.77527,617.252,2596.15,2595.08,1.77532,0.145338
1347.0,1.77658,617.417,2600.48,2599.4,1.77602,0.146038
1350.0,1.77665,617.582,2604.8,2603.72,1.7761,0.146118
1353.0,1.77407,617.747,2609.13,2608.04,1.77478,0.144798
1356.0,1.77382,617.912,2613.45,2612.36,1.77382,0.143838
1359.0,1.77401,618.077,2617.77,2616.67,1.7735,0.143518
1362.0,1.77259,618.242,2622.09,2620.99,1.77259,0.142608
1365.0,1.77115,618.407,2626.4,2625.3,1.77222,0.142238
1368.0,1.77261,618.572,2630.72,2629.6,1.77261,0.142628
1371.0,1.77249,618.737,2635.03,2633.91,1.77206,0.142078
1374.0,1.77088,618.902,2639.34,2638.21,1.77143,0.141448
1377.0,1.77185,619.067,2643.64,2642.51,1.77098,0.140998
1380.0,1.76975,619.232,2647.95,2646.81,1.77023,0.140248
1383.0,1.768,619.397,2652.25,2651.11,1.76832,0.138338
1386.0,1.76916,619.562,2656.55,2655.4,1.76916,0.139178
1389.0,1.7703,619.727,2660.84,2659.69,1.76999,0.140008
1392.0,1.7678,619.892,2665.14,2663.98,1.7678,0.137818
1395.0,1.76794,620.057,2669.43,2668.27,1.76724,0.137258
1398.0,1.76656,620.222,2673.72,2672.55,1.76701,0.137028
1401.0,1.76599,620.387,2678.01,2676.84,1.76629,0.136308
1404.0,1.76494,620.551,2682.29,2681.12,1.76528,0.135298
1407.0,1.76463,620.716,2686.58,2685.39,1.76463,0.134648
1410.0,1.76471,620.881,2690.86,2689.67,1.76436,0.134378
1413.0,1.76339,621.046,2695.14,2693.94,1.764,0.134018
1416.0,1.76413,621.211,2699.41,2698.21,1.76413,0.134148
1419.0,1.76489,621.376,2703.69,2702.48,1.76489,0.134908
1422.0,1.76143,621.541,2707.96,2706.75,1.76235,0.132368
1425.0,1.7622,621.706,2712.23,2711.01,1.7623,0.132318
1428.0,1.76358,621.871,2716.5,2715.27,1.7623,0.132318
1431.0,1.76359,622.036,2720.76,2719.53,1.76304,0.133058
1434.0,1.76111,622.201,2725.03,2723.79,1.76111,0.131128
1437.0,1.76038,622.366,2729.29,2728.05,1.76054,0.130558
1440.0,1.76075,622.531,2733.54,2732.3,1.76093,0.130948
1443.0,1.76084,622.696,2737.8,2736.55,1.76084,0.130858
1446.0,1.75951,622.861,2742.05,2740.8,1.7593,0.129318
1449.0,1.75818,623.026,2746.31,2745.04,1.75871,0.128728
1452.0,1.75787,623.191,2750.56,2749.29,1.75787,0.127888
1455.0,1.76022,623.356,2754.8,2753.53,1.75851,0.128528
1458.0,1.7557,623.521,2759.05,2757.77,1.75697,0.126988
1461.0,1.75702,623.686,2763.29,2762.01,1.75697,0.126988
1464.0,1.75612,623.851,2767.53,2766.24,1.75578,0.125798
1467.0,1.75514,624.016,2771.77,2770.47,1.75529,0.125308
1470.0,1.75445,624.181,2776,2774.7,1.75445,0.124468
1473.0,1.75325,624.346,2780.24,2778.93,1.75384,0.123858
1476.0,1.75497,624.511,2784.47,2783.16,1.75475,0.124768
1479.0,1.75584,624.676,2788.7,2787.38,1.75463,0.124648
1482.0,1.75234,624.841,2792.93,2791.6,1.75234,0.122358
1485.0,1.75105,625.006,2797.15,2795.82,1.7516,0.121618
1488.0,1.75038,625.171,2801.37,2800.04,1.75057,0.120588
1491.0,1.75205,625.336,2805.59,2804.25,1.75112,0.121138
1494.0,1.75038,625.501,2809.81,2808.47,1.75038,0.120398
1497.0,1.74961,625.666,2814.03,2812.68,1.74923,0.119248
1500.0,1.74772,625.831,2818.24,2816.89,1.74822,0.118238
1503.0,1.74828,625.996,2822.45,2821.09,1.74821,0.118228
1506.0,1.74919,626.161,2826.66,2825.3,1.74821,0.118228
1509.0,1.74723,626.326,2830.87,2829.5,1.74723,0.117248
1512.0,1.74688,626.491,2835.07,2833.7,1.74684,0.116858
1515.0,1.74654,626.656,2839.27,2837.89,1.74623,0.116248
1518.0,1.74571,626.821,2843.48,2842.09,1.74591,0.115928
1521.0,1.74649,626.986,2847.67,2846.28,1.74636,0.116378
1524.0,1.74708,627.151,2851.87,2850.47,1.74695,0.116968
1527.0,1.74561,627.316,2856.06,2854.66,1.74561,0.115628
1530.0,1.74349,627.481,2860.25,2858.85,1.74376,0.113778
1533.0,1.74395,627.646,2864.44,2863.03,1.74376,0.113778
1536.0,1.74426,627.811,2868.63,2867.21,1.74361,0.113628
1539.0,1.74325,627.976,2872.82,2871.39,1.74325,0.113268
1542.0,1.74292,628.141,2877,2875.57,1.74316,0.113178
1545.0,1.74328,628.306,2881.18,2879.74,1.74261,0.112628
1548.0,1.74114,628.471,2885.36,2883.92,1.74114,0.111158
1551.0,1.73761,628.636,2889.53,2888.09,1.7392,0.109218
1554.0,1.73973,628.801,2893.71,2892.26,1.73973,0.109748
1557.0,1.74131,628.966,2897.88,2896.42,1.74062,0.110638
1560.0,1.74056,629.131,2902.05,2900.59,1.74056,0.110578
1563.0,1.73804,629.296,2906.21,2904.75,1.73804,0.108058
1566.0,1.7371,629.461,2910.38,2908.91,1.7371,0.107118
1569.0,1.73575,629.626,2914.54,2913.06,1.73657,0.106588
1572.0,1.73772,629.791,2918.7,2917.22,1.73769,0.107708
1575.0,1.73786,629.956,2922.86,2921.37,1.73769,0.107708
1578.0,1.73568,630.121,2927.02,2925.52,1.73601,0.106028
1581.0,1.73485,630.286,2931.17,2929.67,1.73485,0.104868
1584.0,1.73369,630.451,2935.32,2933.82,1.73369,0.103708
1587.0,1.73373,630.616,2939.47,2937.96,1.73351,0.103528
1590.0,1.73426,630.781,2943.62,2942.11,1.73402,0.104038
1593.0,1.73297,630.946,2947.77,2946.25,1.73297,0.102988
1596.0,1.73093,631.111,2951.91,2950.38,1.7317,0.101718
1599.0,1.7324,631.276,2956.05,2954.52,1.73198,0.101998
1602.0,1.72933,631.441,2960.19,2958.65,1.73001,0.100028
1605.0,1.73035,631.606,2964.33,2962.79,1.72983,0.0998475
1608.0,1.72903,631.771,2968.46,2966.92,1.72903,0.0990475
1611.0,1.72801,631.936,2972.6,2971.04,1.72801,0.0980275
1614.0,1.72868,632.101,2976.73,2975.17,1.72762,0.0976375
1617.0,1.72591,632.266,2980.85,2979.29,1.72617,0.0961875
1620.0,1.72619,632.431,2984.98,2983.41,1.72602,0.0960375
1623.0,1.72357,632.596,2989.1,2987.53,1.72481,0.0948275
1626.0,1.72604,632.761,2993.23,2991.65,1.72481,0.0948275
1629.0,1.72391,632.926,2997.35,2995.76,1.72417,0.0941875
1632.0,1.72392,633.091,3001.46,2999.87,1.72392,0.0939375
1635.0,1.72098,633.256,3005.58,3003.98,1.72186,0.0918775
1638.0,1.72093,633.421,3009.69,3008.09,1.72101,0.0910275
1641.0,1.72214,633.585,3013.8,3012.2,1.72188,0.0918975
1644.0,1.72068,633.75,3017.91,3016.3,1.72068,0.0906975
1647.0,1.71894,633.915,3022.02,3020.4,1.71894,0.0889575
1650.0,1.71864,634.08,3026.12,3024.5,1.71864,0.0886575
1653.0,1.71755,634.245,3030.23,3028.6,1.71755,0.0875675
1656.0,1.71716,634.41,3034.33,3032.69,1.71751,0.0875275
1659.0,1.71769,634.575,3038.42,3036.79,1.71769,0.0877075
1662.0,1.71634,634.74,3042.52,3040.88,1.71577,0.0857875
1665.0,1.71473,634.905,3046.61,3044.97,1.7143,0.0843175
1668.0,1.71358,635.07,3050.71,3049.05,1.71383,0.0838475
1671.0,1.71327,635.235,3054.8,3053.14,1.71383,0.0838475
1674.0,1.71433,635.4,3058.88,3057.22,1.71388,0.0838975
1677.0,1.71176,635.565,3062.97,3061.3,1.71185,0.0818675
1680.0,1.71139,635.73,3067.05,3065.38,1.71139,0.0814075
1683.0,1.71069,635.895,3071.13,3069.45,1.71069,0.0807075
1686.0,1.7092,636.06,3075.21,3073.53,1.7092,0.0792175
1689.0,1.70805,636.225,3079.29,3077.6,1.70857,0.0785875
1692.0,1.70831,636.39,3083.36,3081.67,1.70848,0.0784975
1695.0,1.70845,636.555,3087.44,3085.74,1.70848,0.0784975
1698.0,1.70958,636.72,3091.51,3089.8,1.70911,0.0791275
1701.0,1.70719,636.885,3095.58,3093.87,1.70719,0.0772075
1704.0,1.70583,637.05,3099.64,3097.93,1.70587,0.0758875
1707.0,1.70676,637.215,3103.71,3101.99,1.70587,0.0758875
1710.0,1.70523,637.38,3107.77,3106.04,1.70521,0.0752275
1713.0,1.70395,637.545,3111.83,3110.1,1.70395,0.0739675
1716.0,1.70449,637.71,3115.89,3114.15,1.7036,0.0736175
1719.0,1.70295,637.875,3119.94,3118.2,1.70318,0.0731975
1722.0,1.7015,638.04,3124,3122.25,1.70159,0.0716075
1725.0,1.70161,638.205,3128.05,3126.3,1.70146,0.0714775
1728.0,1.70082,638.37,3132.1,3130.34,1.70082,0.0708375
1731.0,1.70009,638.535,3136.15,3134.38,1.701,0.0710175
1734.0,1.70144,638.7,3140.19,3138.42,1.701,0.0710175
1737.0,1.70101,638.865,3144.24,3142.46,1.70054,0.0705575
1740.0,1.69825,639.03,3148.28,3146.5,1.69825,0.0682675
1743.0,1.69546,639.195,3152.32,3150.53,1.69643,0.0664475
1746.0,1.69788,639.36,3156.35,3154.56,1.69733,0.0673475
1749.0,1.69797,639.525,3160.39,3158.59,1.69751,0.0675275
1752.0,1.69692,639.69,3164.42,3162.62,1.69692,0.0669375
1755.0,1.69585,639.855,3168.45,3166.65,1.69569,0.0657075
1758.0,1.69399,640.02,3172.48,3170.67,1.69399,0.0640075
1761.0,1.69386,640.185,3176.51,3174.69,1.69337,0.0633875
1764.0,1.69314,640.35,3180.53,3178.71,1.69314,0.0631575
1767.0,1.69224,640.515,3184.55,3182.73,1.69224,0.0622575
1770.0,1.69137,640.68,3188.58,3186.74,1.69136,0.0613775
1773.0,1.68938,640.845,3192.59,3190.76,1.68982,0.0598375
1776.0,1.69007,641.01,3196.61,3194.77,1.68982,0.0598375
1779.0,1.68852,641.175,3200.62,3198.78,1.6887,0.0587175
1782.0,1.68958,641.34,3204.64,3202.78,1.68911,0.0591275
1785.0,1.68737,641.505,3208.65,3206.79,1.68737,0.0573875
1788.0,1.68623,641.67,3212.65,3210.79,1.68623,0.0562475
1791.0,1.68545,641.835,3216.66,3214.79,1.68534,0.0553575
1794.0,1.68625,642,3220.66,3218.79,1.68624,0.0562575
1797.0,1.68486,642.165,3224.67,3222.79,1.685,0.0550175
1800.0,1.68455,642.33,3228.67,3226.78,1.68496,0.0549775
1803.0,1.68472,642.495,3232.66,3230.78,1.68472,0.0547375
1806.0,1.68366,642.66,3236.66,3234.77,1.68382,0.0538375
1809.0,1.68259,642.825,3240.65,3238.76,1.68259,0.0526075
1812.0,1.68355,642.99,3244.65,3242.74,1.68238,0.0523975
1815.0,1.6816,643.155,3248.64,3246.73,1.68226,0.0522775
1818.0,1.68185,643.32,3252.62,3250.71,1.68185,0.0518675
1821.0,1.68165,643.485,3256.61,3254.69,1.68146,0.0514775
1824.0,1.68106,643.65,3260.59,3258.67,1.68146,0.0514775
1827.0,1.68074,643.815,3264.57,3262.64,1.681,0.0510175
1830.0,1.67944,643.98,3268.55,3266.62,1.67944,0.0494575
1833.0,1.67831,644.145,3272.53,3270.59,1.67878,0.0487975
1836.0,1.67834,644.31,3276.51,3274.56,1.67834,0.0483575
1839.0,1.67835,644.475,3280.48,3278.53,1.6783,0.0483175
1842.0,1.67855,644.64,3284.45,3282.5,1.67812,0.0481375
1845.0,1.67823,644.805,3288.42,3286.46,1.67787,0.0478875
1848.0,1.67706,644.97,3292.39,3290.42,1.67706,0.0470775
1851.0,1.67682,645.135,3296.35,3294.38,1.67699,0.0470075
1854.0,1.67758,645.3,3300.31,3298.34,1.67736,0.0473775
1857.0,1.67596,645.465,3304.28,3302.3,1.67631,0.0463275
1860.0,1.67536,645.63,3308.23,3306.25,1.67536,0.0453775
1863.0,1.67527,645.795,3312.19,3310.2,1.67527,0.0452875
1866.0,1.67488,645.96,3316.15,3314.15,1.67488,0.0448975
1869.0,1.67478,646.125,3320.1,3318.1,1.67505,0.0450675
1872.0,1.67731,646.29,3324.05,3322.05,1.67651,0.0465275
1875.0,1.67554,646.455,3328,3325.99,1.67604,0.0460575
1878.0,1.67591,646.619,3331.95,3329.93,1.67591,0.0459275
1881.0,1.67485,646.784,3335.89,3333.87,1.67468,0.0446975
1884.0,1.67397,646.949,3339.83,3337.81,1.67451,0.0445275
1887.0,1.67471,647.114,3343.78,3341.74,1.67442,0.0444375
1890.0,1.67538,647.279,3347.71,3345.68,1.67538,0.0453975
1893.0,1.67546,647.444,3351.65,3349.61,1.67552,0.0455375
1896.0,1.67597,647.609,3355.59,3353.54,1.67597,0.0459875
1899.0,1.67508,647.774,3359.52,3357.47,1.67543,0.0454475
1902.0,1.67537,647.939,3363.45,3361.39,1.67537,0.0453875
1905.0,1.67492,648.104,3367.38,3365.32,1.67492,0.0449375
1908.0,1.67574,648.269,3371.31,3369.24,1.67574,0.0457575
1911.0,1.67608,648.434,3375.23,3373.16,1.67608,0.0460975
1914.0,1.67468,648.599,3379.15,3377.08,1.67468,0.0446975
1917.0,1.67315,648.764,3383.07,3380.99,1.6732,0.0432175
1920.0,1.67657,648.929,3386.99,3384.91,1.67516,0.0451775
1923.0,1.67327,649.094,3390.91,3388.82,1.67406,0.0440775
1926.0,1.67336,649.259,3394.83,3392.73,1.67406,0.0440775
1929.0,1.67732,649.424,3398.74,3396.64,1.67702,0.0470375
1932.0,1.67815,649.589,3402.65,3400.54,1.6776,0.0476175
1935.0,1.67521,649.754,3406.56,3404.45,1.67524,0.0452575
1938.0,1.67431,649.919,3410.47,3408.35,1.67473,0.0447475
1941.0,1.67559,650.084,3414.37,3412.25,1.67524,0.0452575
1944.0,1.67497,650.249,3418.27,3416.15,1.67502,0.0450375
1947.0,1.67565,650.414,3422.17,3420.04,1.67565,0.0456675
1950.0,1.67732,650.579,3426.07,3423.94,1.67708,0.0470975
1953.0,1.67527,650.744,3429.97,3427.83,1.67595,0.0459675
1956.0,1.67622,650.909,3433.87,3431.72,1.67622,0.0462375
1959.0,1.67715,651.074,3437.76,3435.61,1.67669,0.0467075
1962.0,1.67566,651.239,3441.65,3439.49,1.67572,0.0457375
1965.0,1.67597,651.404,3445.54,3443.38,1.67597,0.0459875
1968.0,1.67806,651.569,3449.43,3447.26,1.67806,0.0480775
1971.0,1.67739,651.734,3453.31,3451.14,1.67793,0.0479475
1974.0,1.67765,651.899,3457.2,3455.02,1.67765,0.0476675
1977.0,1.67592,652.064,3461.08,3458.89,1.6764,0.0464175
1980.0,1.67833,652.229,3464.96,3462.77,1.67786,0.0478775
1983.0,1.67946,652.394,3468.83,3466.64,1.67902,0.0490375
1986.0,1.67829,652.559,3472.71,3470.51,1.67829,0.0483075
1989.0,1.67695,652.724,3476.58,3474.38,1.67777,0.0477875
1992.0,1.67898,652.889,3480.45,3478.25,1.6783,0.0483175
1995.0,1.6793,653.054,3484.32,3482.11,1.6793,0.0493175
1998.0,1.67911,653.219,3488.19,3485.97,1.67911,0.0491275
2001.0,1.6783,653.384,3492.06,3489.83,1.67841,0.0484275
2004.0,1.68131,653.549,3495.92,3493.69,1.68083,0.0508475
2007.0,1.68109,653.714,3499.78,3497.55,1.68109,0.0511075
2010.0,1.67989,653.879,3503.64,3501.4,1.67989,0.0499075
2013.0,1.67966,654.044,3507.5,3505.26,1.67953,0.0495475
2016.0,1.67534,654.209,3511.36,3509.11,1.67627,0.0462875
2019.0,1.67697,654.374,3515.21,3512.96,1.67697,0.0469875
2022.0,1.67977,654.539,3519.06,3516.8,1.67977,0.0497875
2025.0,1.68117,654.704,3522.91,3520.65,1.68117,0.0511875
2028.0,1.67717,654.869,3526.76,3524.49,1.67796,0.0479775
2031.0,1.68165,655.034,3530.61,3528.33,1.68165,0.0516675
2034.0,1.68362,655.199,3534.45,3532.17,1.68362,0.0536375
2037.0,1.68059,655.364,3538.29,3536.01,1.68059,0.0506075
2040.0,1.67656,655.529,3542.13,3539.85,1.67739,0.0474075
2043.0,1.67679,655.694,3545.97,3543.68,1.67679,0.0468075
2046.0,1.67673,655.859,3549.81,3547.51,1.67652,0.0465375
2047.0,1.67652,655.914,3551.09,3548.79,1.67636,0.0463775