File: data/processed/processed_data/2024-09-03/2024-09-03_glycinepowder_n_n_y_solid_1000_0_5.csv
Pixels #,Intensity (a.u.),Wavelength (nm),Raman shift (cm-1),Raman shift (cm-1) adjusted,Filtered Intensity (a.u.),Baselined Filtered Intensity (a.u.)
0.0,7.56125,543.337,392.223,393.994,7.56034,-0.080757
3.0,7.56054,543.502,397.81,399.573,7.56054,-0.0805575
6.0,7.56035,543.667,403.394,405.15,7.56082,-0.0802787
9.0,7.56102,543.832,408.974,410.723,7.56102,-0.0800806
12.0,7.56095,543.997,414.551,416.293,7.56095,-0.0801531
15.0,7.56,544.162,420.125,421.859,7.56,-0.0811064
18.0,7.56124,544.327,425.695,427.422,7.56084,-0.0802705
21.0,7.55922,544.492,431.261,432.981,7.5604,-0.0807152
24.0,7.56065,544.657,436.825,438.537,7.56065,-0.0804706
27.0,7.56052,544.822,442.385,444.09,7.56076,-0.0803668
30.0,7.56141,544.987,447.941,449.64,7.56141,-0.0797236
33.0,7.56258,545.152,453.494,455.186,7.56148,-0.0796612
36.0,7.55921,545.317,459.044,460.728,7.56039,-0.0807594
39.0,7.56009,545.482,464.591,466.268,7.56048,-0.0806784
42.0,7.56247,545.647,470.134,471.804,7.56151,-0.0796581
45.0,7.56106,545.812,475.674,477.337,7.56151,-0.0796685
48.0,7.56311,545.977,481.21,482.866,7.56311,-0.0780796
51.0,7.56621,546.142,486.743,488.392,7.56593,-0.0752713
54.0,7.56981,546.307,492.273,493.915,7.56981,-0.0714038
57.0,7.57817,546.472,497.8,499.434,7.57817,-0.0630568
60.0,7.59026,546.637,503.323,504.95,7.59026,-0.0509804
63.0,7.59661,546.802,508.843,510.463,7.59661,-0.0446445
66.0,7.60327,546.967,514.359,515.972,7.60327,-0.037999
69.0,7.61184,547.132,519.872,521.478,7.61184,-0.0294438
72.0,7.6187,547.297,525.382,526.981,7.6187,-0.0225988
75.0,7.62636,547.462,530.888,532.48,7.62636,-0.0149541
78.0,7.6374,547.627,536.392,537.976,7.6374,-0.00392951
81.0,7.6457,547.792,541.891,543.469,7.64451,0.00316506
84.0,7.65128,547.957,547.388,548.958,7.65128,0.00991966
87.0,7.65412,548.122,552.881,554.444,7.6548,0.0134243
90.0,7.65682,548.287,558.371,559.927,7.65682,0.0154291
93.0,7.65877,548.452,563.858,565.407,7.65819,0.0167841
96.0,7.65855,548.617,569.341,570.883,7.65779,0.0163692
99.0,7.65978,548.782,574.821,576.356,7.65967,0.0182344
102.0,7.65717,548.947,580.298,581.826,7.65764,0.0161898
105.0,7.66055,549.112,585.771,587.292,7.66055,0.0190853
108.0,7.65821,549.277,591.241,592.755,7.65924,0.017761
111.0,7.66069,549.442,596.708,598.215,7.6595,0.0180069
114.0,7.65916,549.607,602.172,603.671,7.65983,0.0183229
117.0,7.66131,549.772,607.632,609.125,7.66159,0.0200691
120.0,7.66509,549.937,613.089,614.575,7.6622,0.0206655
123.0,7.65926,550.102,618.543,620.021,7.66114,0.019592
126.0,7.66281,550.267,623.993,625.465,7.66114,0.0195788
129.0,7.66177,550.432,629.44,630.905,7.6617,0.0201257
132.0,7.65773,550.597,634.884,636.342,7.65919,0.0176027
135.0,7.65956,550.762,640.325,641.776,7.65945,0.01785
138.0,7.66294,550.927,645.762,647.206,7.66221,0.0205974
141.0,7.66221,551.092,651.197,652.633,7.66308,0.0214549
144.0,7.66249,551.257,656.627,658.057,7.66473,0.0230927
147.0,7.66564,551.422,662.055,663.478,7.66747,0.0258207
150.0,7.67384,551.587,667.48,668.895,7.66982,0.0281589
153.0,7.67065,551.752,672.901,674.309,7.67189,0.0302173
156.0,7.6737,551.917,678.319,679.72,7.67404,0.032356
159.0,7.67893,552.082,683.733,685.128,7.67893,0.037235
162.0,7.68293,552.247,689.145,690.533,7.68293,0.0412243
165.0,7.68777,552.412,694.553,695.934,7.68809,0.046374
168.0,7.69382,552.577,699.958,701.332,7.69382,0.0520942
171.0,7.70121,552.742,705.36,706.727,7.70121,0.0594747
174.0,7.70883,552.907,710.758,712.118,7.70883,0.0670858
177.0,7.71502,553.072,716.154,717.507,7.71502,0.0732675
180.0,7.72411,553.237,721.546,722.892,7.72411,0.0823499
183.0,7.73391,553.402,726.935,728.274,7.73391,0.0921429
186.0,7.74832,553.567,732.32,733.652,7.74832,0.106547
189.0,7.76137,553.732,737.703,739.028,7.76137,0.119592
192.0,7.7786,553.897,743.082,744.4,7.7786,0.136818
195.0,7.79073,554.062,748.458,749.769,7.79073,0.148945
198.0,7.81035,554.227,753.831,755.135,7.81035,0.168563
201.0,7.8255,554.392,759.201,760.498,7.8255,0.183713
204.0,7.85047,554.557,764.567,765.858,7.85047,0.208683
207.0,7.88061,554.722,769.93,771.214,7.88061,0.238823
210.0,7.9057,554.887,775.29,776.567,7.9057,0.263913
213.0,7.93407,555.052,780.647,781.917,7.93407,0.292283
216.0,7.96996,555.217,786.001,787.264,7.96996,0.328173
219.0,8.00057,555.382,791.352,792.608,8.00057,0.358783
222.0,8.04433,555.546,796.699,797.948,8.04433,0.402543
225.0,8.08547,555.711,802.043,803.285,8.08547,0.443683
228.0,8.12383,555.876,807.384,808.62,8.12383,0.482043
231.0,8.17155,556.041,812.722,813.951,8.17155,0.529763
234.0,8.22007,556.206,818.057,819.278,8.22007,0.578283
237.0,8.26957,556.371,823.388,824.603,8.26957,0.627783
240.0,8.31524,556.536,828.716,829.924,8.31524,0.673453
243.0,8.36812,556.701,834.042,835.243,8.36812,0.726333
246.0,8.41172,556.866,839.364,840.558,8.41172,0.769933
249.0,8.45709,557.031,844.682,845.87,8.45709,0.815303
252.0,8.49807,557.196,849.998,851.179,8.49807,0.856283
255.0,8.53457,557.361,855.311,856.485,8.53457,0.892783
258.0,8.56554,557.526,860.62,861.787,8.56554,0.923753
261.0,8.6013,557.691,865.927,867.087,8.6013,0.959513
264.0,8.62922,557.856,871.23,872.383,8.62922,0.987433
267.0,8.66862,558.021,876.53,877.676,8.66862,1.02683
270.0,8.70575,558.186,881.827,882.966,8.70575,1.06396
273.0,8.74287,558.351,887.12,888.253,8.74287,1.10108
276.0,8.74833,558.516,892.411,893.537,8.75003,1.10824
279.0,8.75027,558.681,897.698,898.818,8.74855,1.10676
282.0,8.7327,558.846,902.983,904.095,8.7327,1.09091
285.0,8.73283,559.011,908.264,909.37,8.73283,1.09104
288.0,8.73482,559.176,913.542,914.641,8.73575,1.09396
291.0,8.74398,559.341,918.817,919.909,8.74305,1.10126
294.0,8.7371,559.506,924.089,925.174,8.73817,1.09638
297.0,8.74152,559.671,929.358,930.436,8.74152,1.09973
300.0,8.74792,559.836,934.624,935.695,8.74594,1.10415
303.0,8.74016,560.001,939.886,940.951,8.74319,1.1014
306.0,8.74491,560.166,945.146,946.204,8.74491,1.10312
309.0,8.7445,560.331,950.402,951.454,8.74617,1.10438
312.0,8.75089,560.496,955.656,956.7,8.74779,1.106
315.0,8.74599,560.661,960.906,961.944,8.74749,1.1057
318.0,8.74797,560.826,966.153,967.184,8.74913,1.10734
321.0,8.75435,560.991,971.397,972.421,8.75247,1.11068
324.0,8.74612,561.156,976.638,977.655,8.74808,1.10629
327.0,8.75709,561.321,981.876,982.887,8.75709,1.1153
330.0,8.75753,561.486,987.111,988.115,8.75753,1.11574
333.0,8.75265,561.651,992.342,993.34,8.75384,1.11205
336.0,8.76374,561.816,997.571,998.562,8.7644,1.12261
339.0,8.76734,561.981,1002.8,1003.78,8.76734,1.12555
342.0,8.7711,562.146,1008.02,1009,8.7711,1.12931
345.0,8.77857,562.311,1013.24,1014.21,8.77857,1.13678
348.0,8.7821,562.476,1018.45,1019.42,8.78374,1.14195
351.0,8.80219,562.641,1023.67,1024.63,8.80219,1.1604
354.0,8.81582,562.806,1028.88,1029.83,8.81494,1.17315
357.0,8.81811,562.971,1034.09,1035.03,8.81811,1.17632
360.0,8.81992,563.136,1039.29,1040.23,8.81992,1.17813
363.0,8.82061,563.301,1044.49,1045.42,8.82061,1.17882
366.0,8.82501,563.466,1049.69,1050.61,8.82219,1.1804
369.0,8.82107,563.631,1054.88,1055.8,8.82107,1.17928
372.0,8.82275,563.796,1060.08,1060.99,8.82435,1.18256
375.0,8.82671,563.961,1065.27,1066.17,8.82671,1.18492
378.0,8.83397,564.126,1070.45,1071.35,8.8338,1.19201
381.0,8.83499,564.291,1075.63,1076.52,8.83499,1.1932
384.0,8.83261,564.456,1080.81,1081.7,8.83261,1.19082
387.0,8.83653,564.621,1085.99,1086.87,8.83547,1.19368
390.0,8.83614,564.786,1091.16,1092.03,8.83763,1.19584
393.0,8.83741,564.951,1096.34,1097.2,8.84076,1.19897
396.0,8.84588,565.116,1101.5,1102.36,8.84516,1.20337
399.0,8.84799,565.281,1106.67,1107.52,8.84799,1.2062
402.0,8.84358,565.446,1111.83,1112.67,8.84872,1.20693
405.0,8.85104,565.611,1116.99,1117.82,8.84849,1.2067
408.0,8.84762,565.776,1122.14,1122.97,8.84849,1.2067
411.0,8.85495,565.941,1127.3,1128.12,8.85495,1.21316
414.0,8.86257,566.106,1132.45,1133.26,8.85733,1.21554
417.0,8.85278,566.271,1137.59,1138.4,8.8573,1.21551
420.0,8.85983,566.436,1142.74,1143.54,8.85735,1.21556
423.0,8.85517,566.601,1147.88,1148.67,8.85517,1.21338
426.0,8.85544,566.766,1153.02,1153.81,8.85544,1.21365
429.0,8.85824,566.931,1158.15,1158.93,8.86164,1.21985
432.0,8.86888,567.096,1163.28,1164.06,8.86424,1.22245
435.0,8.8672,567.261,1168.41,1169.18,8.86969,1.2279
438.0,8.86305,567.426,1173.54,1174.3,8.86323,1.22144
441.0,8.86665,567.591,1178.66,1179.42,8.86665,1.22486
444.0,8.8728,567.756,1183.78,1184.53,8.87351,1.23172
447.0,8.88668,567.921,1188.9,1189.64,8.88317,1.24138
450.0,8.87445,568.086,1194.01,1194.75,8.88317,1.24138
453.0,8.88761,568.251,1199.12,1199.85,8.88395,1.24216
456.0,8.88658,568.416,1204.23,1204.95,8.88719,1.2454
459.0,8.88996,568.58,1209.33,1210.05,8.89087,1.24908
462.0,8.90098,568.745,1214.44,1215.15,8.89916,1.25737
465.0,8.89137,568.91,1219.53,1220.24,8.89137,1.24958
468.0,8.89446,569.075,1224.63,1225.33,8.89446,1.25267
471.0,8.89544,569.24,1229.72,1230.42,8.89585,1.25406
474.0,8.886,569.405,1234.81,1235.5,8.89294,1.25115
477.0,8.89823,569.57,1239.9,1240.58,8.89823,1.25644
480.0,8.90098,569.735,1244.99,1245.66,8.90067,1.25888
483.0,8.90388,569.9,1250.07,1250.73,8.90388,1.26209
486.0,8.90998,570.065,1255.14,1255.8,8.90799,1.2662
489.0,8.90153,570.23,1260.22,1260.87,8.90621,1.26442
492.0,8.90713,570.395,1265.29,1265.94,8.90621,1.26442
495.0,8.90605,570.56,1270.36,1271,8.90591,1.26412
498.0,8.90771,570.725,1275.43,1276.06,8.9074,1.26561
501.0,8.91244,570.89,1280.49,1281.12,8.91244,1.27065
504.0,8.91863,571.055,1285.55,1286.17,8.91863,1.27684
507.0,8.9227,571.22,1290.61,1291.22,8.9227,1.28091
510.0,8.91936,571.385,1295.67,1296.27,8.9194,1.27761
513.0,8.93259,571.55,1300.72,1301.32,8.93259,1.2908
516.0,8.94248,571.715,1305.77,1306.36,8.94385,1.30206
519.0,8.96583,571.88,1310.81,1311.4,8.96583,1.32404
522.0,8.99135,572.045,1315.86,1316.44,8.99135,1.34956
525.0,9.01262,572.21,1320.9,1321.47,9.00993,1.36814
528.0,9.0063,572.375,1325.94,1326.5,9.0063,1.36451
531.0,8.97908,572.54,1330.97,1331.53,8.97908,1.33729
534.0,8.95789,572.705,1336,1336.56,8.95789,1.3161
537.0,8.93742,572.87,1341.03,1341.58,8.94131,1.29952
540.0,8.94054,573.035,1346.06,1346.6,8.94069,1.2989
543.0,8.94985,573.2,1351.08,1351.61,8.94672,1.30493
546.0,8.94566,573.365,1356.1,1356.63,8.94466,1.30287
549.0,8.94386,573.53,1361.12,1361.64,8.94466,1.30287
552.0,8.96033,573.695,1366.13,1366.65,8.95484,1.31305
555.0,8.95721,573.86,1371.14,1371.65,8.95711,1.31532
558.0,8.96211,574.025,1376.15,1376.65,8.95912,1.31733
561.0,8.95669,574.19,1381.16,1381.65,8.9621,1.32031
564.0,8.97114,574.355,1386.16,1386.65,8.97114,1.32935
567.0,8.97966,574.52,1391.16,1391.64,8.9786,1.33681
570.0,8.97954,574.685,1396.16,1396.63,8.97954,1.33775
573.0,8.99343,574.85,1401.15,1401.62,8.99343,1.35164
576.0,9.00423,575.015,1406.14,1406.61,9.00396,1.36217
579.0,8.99778,575.18,1411.13,1411.59,8.99778,1.35599
582.0,8.98454,575.345,1416.12,1416.57,8.98642,1.34463
585.0,8.98529,575.51,1421.1,1421.54,8.98529,1.3435
588.0,8.98303,575.675,1426.08,1426.52,8.98256,1.34077
591.0,8.9845,575.84,1431.06,1431.49,8.98334,1.34155
594.0,8.98609,576.005,1436.03,1436.46,8.98609,1.3443
597.0,8.99399,576.17,1441,1441.42,8.9932,1.35141
600.0,8.99496,576.335,1445.97,1446.38,8.99496,1.35317
603.0,9.00205,576.5,1450.94,1451.34,9.0002,1.35841
606.0,8.9992,576.665,1455.9,1456.3,8.9992,1.35741
609.0,8.9854,576.83,1460.86,1461.25,8.9854,1.34361
612.0,8.98118,576.995,1465.82,1466.2,8.98299,1.3412
615.0,8.99072,577.16,1470.77,1471.15,8.98851,1.34672
618.0,8.99064,577.325,1475.72,1476.1,8.99064,1.34885
621.0,8.98965,577.49,1480.67,1481.04,8.99029,1.3485
624.0,8.9951,577.655,1485.62,1485.98,8.9951,1.35331
627.0,8.99456,577.82,1490.56,1490.91,8.99731,1.35552
630.0,9.00238,577.985,1495.5,1495.85,8.99834,1.35655
633.0,8.99832,578.15,1500.44,1500.78,8.99925,1.35746
636.0,9.00299,578.315,1505.37,1505.71,9.00299,1.3612
639.0,9.00904,578.48,1510.3,1510.63,9.01087,1.36908
642.0,9.00929,578.645,1515.23,1515.55,9.01096,1.36917
645.0,9.01353,578.81,1520.16,1520.47,9.01156,1.36977
648.0,9.00926,578.975,1525.08,1525.39,9.00926,1.36747
651.0,9.00421,579.14,1530,1530.31,9.00576,1.36397
654.0,9.01094,579.305,1534.92,1535.22,9.01094,1.36915
657.0,9.01667,579.47,1539.83,1540.13,9.01494,1.37315
660.0,9.00888,579.635,1544.75,1545.03,9.0129,1.37111
663.0,9.01103,579.8,1549.65,1549.93,9.01242,1.37063
666.0,9.02285,579.965,1554.56,1554.83,9.02285,1.38106
669.0,9.02811,580.13,1559.47,1559.73,9.02548,1.38369
672.0,9.0192,580.295,1564.37,1564.63,9.02201,1.38022
675.0,9.0294,580.46,1569.26,1569.52,9.0226,1.38081
678.0,9.01941,580.625,1574.16,1574.41,9.01941,1.37762
681.0,9.01471,580.79,1579.05,1579.29,9.01714,1.37535
684.0,9.01952,580.955,1583.94,1584.18,9.01465,1.37286
687.0,9.01425,581.12,1588.83,1589.06,9.0139,1.37211
690.0,9.01087,581.285,1593.71,1593.94,9.01271,1.37092
693.0,9.01631,581.45,1598.59,1598.81,9.01521,1.37342
696.0,9.00708,581.614,1603.47,1603.68,9.00897,1.36718
699.0,9.01694,581.779,1608.35,1608.55,9.01352,1.37173
702.0,9.00951,581.944,1613.22,1613.42,9.01334,1.37155
705.0,9.01115,582.109,1618.09,1618.28,9.01115,1.36936
708.0,9.01572,582.274,1622.96,1623.15,9.01495,1.37316
711.0,9.02034,582.439,1627.83,1628,9.01711,1.37532
714.0,9.01312,582.604,1632.69,1632.86,9.01773,1.37594
717.0,9.01837,582.769,1637.55,1637.71,9.01773,1.37594
720.0,9.00362,582.934,1642.4,1642.56,9.01058,1.36879
723.0,9.01254,583.099,1647.26,1647.41,9.01058,1.36879
726.0,9.00491,583.264,1652.11,1652.26,9.00969,1.3679
729.0,9.02405,583.429,1656.96,1657.1,9.01459,1.3728
732.0,9.01298,583.594,1661.8,1661.94,9.0148,1.37301
735.0,9.02171,583.759,1666.65,1666.77,9.02171,1.37992
738.0,9.01775,583.924,1671.49,1671.61,9.01775,1.37596
741.0,9.01712,584.089,1676.32,1676.44,9.01331,1.37152
744.0,9.00774,584.254,1681.16,1681.27,9.01331,1.37152
747.0,9.01803,584.419,1685.99,1686.09,9.0187,1.37691
750.0,9.02008,584.584,1690.82,1690.92,9.01895,1.37716
753.0,9.01126,584.749,1695.65,1695.74,9.01126,1.36947
756.0,9.01394,584.914,1700.47,1700.55,9.01394,1.37215
759.0,9.01787,585.079,1705.29,1705.37,9.01787,1.37608
762.0,9.01992,585.244,1710.11,1710.18,9.01992,1.37813
765.0,9.0125,585.409,1714.92,1714.99,9.01595,1.37416
768.0,9.01896,585.574,1719.74,1719.8,9.01896,1.37717
771.0,9.02144,585.739,1724.55,1724.6,9.02041,1.37862
774.0,9.02326,585.904,1729.35,1729.4,9.02246,1.38067
777.0,9.0172,586.069,1734.16,1734.2,9.01874,1.37695
780.0,9.01946,586.234,1738.96,1739,9.01946,1.37767
783.0,9.01847,586.399,1743.76,1743.79,9.01847,1.37668
786.0,9.01752,586.564,1748.56,1748.58,9.01717,1.37538
789.0,9.02094,586.729,1753.35,1753.37,9.01893,1.37714
792.0,9.01479,586.894,1758.14,1758.15,9.01509,1.3733
795.0,9.01552,587.059,1762.93,1762.94,9.01509,1.3733
798.0,9.01038,587.224,1767.72,1767.72,9.01125,1.36946
801.0,9.0133,587.389,1772.5,1772.49,9.01246,1.37067
804.0,9.01222,587.554,1777.28,1777.27,9.01222,1.37043
807.0,9.01218,587.719,1782.06,1782.04,9.01053,1.36874
810.0,9.01065,587.884,1786.83,1786.81,9.01065,1.36886
813.0,9.01672,588.049,1791.61,1791.57,9.01609,1.3743
816.0,9.01756,588.214,1796.38,1796.34,9.01475,1.37296
819.0,9.0218,588.379,1801.14,1801.1,9.01857,1.37678
822.0,9.01592,588.544,1805.91,1805.86,9.01542,1.37363
825.0,9.01576,588.709,1810.67,1810.61,9.01556,1.37377
828.0,9.01494,588.874,1815.43,1815.37,9.01631,1.37452
831.0,9.01926,589.039,1820.19,1820.12,9.01926,1.37747
834.0,9.01645,589.204,1824.94,1824.86,9.01392,1.37213
837.0,9.01194,589.369,1829.69,1829.61,9.01194,1.37015
840.0,9.01359,589.534,1834.44,1834.35,9.01359,1.3718
843.0,9.02148,589.699,1839.18,1839.09,9.02085,1.37906
846.0,9.03103,589.864,1843.93,1843.83,9.02649,1.3847
849.0,9.01557,590.029,1848.67,1848.56,9.01955,1.37776
852.0,9.02374,590.194,1853.41,1853.29,9.01946,1.37767
855.0,9.01403,590.359,1858.14,1858.02,9.01946,1.37767
858.0,9.02849,590.524,1862.87,1862.75,9.02173,1.37994
861.0,9.02182,590.689,1867.6,1867.47,9.02182,1.38003
864.0,9.02183,590.854,1872.33,1872.2,9.02274,1.38095
867.0,9.01966,591.019,1877.06,1876.91,9.01966,1.37787
870.0,9.02528,591.184,1881.78,1881.63,9.02528,1.38349
873.0,9.02562,591.349,1886.5,1886.34,9.02562,1.38383
876.0,9.01069,591.514,1891.21,1891.05,9.01367,1.37188
879.0,9.01141,591.679,1895.93,1895.76,9.01442,1.37263
882.0,9.0253,591.844,1900.64,1900.47,9.02503,1.38324
885.0,9.02255,592.009,1905.35,1905.17,9.02343,1.38164
888.0,9.01925,592.174,1910.05,1909.87,9.02081,1.37902
891.0,9.01498,592.339,1914.76,1914.57,9.01498,1.37319
894.0,9.01248,592.504,1919.46,1919.26,9.01248,1.37069
897.0,9.01502,592.669,1924.16,1923.96,9.01502,1.37323
900.0,9.01318,592.834,1928.85,1928.64,9.01318,1.37139
903.0,9.00918,592.999,1933.55,1933.33,9.01057,1.36878
906.0,9.01229,593.164,1938.24,1938.02,9.01028,1.36849
909.0,8.99941,593.329,1942.93,1942.7,8.99941,1.35762
912.0,9.00125,593.494,1947.61,1947.38,9.00125,1.35946
915.0,9.00436,593.659,1952.29,1952.05,9.005,1.36321
918.0,9.00317,593.824,1956.97,1956.73,9.00381,1.36202
921.0,9.00217,593.989,1961.65,1961.4,8.99961,1.35782
924.0,8.99749,594.154,1966.33,1966.07,8.99749,1.3557
927.0,8.99412,594.319,1971,1970.73,8.99823,1.35644
930.0,9.00018,594.484,1975.67,1975.4,8.99846,1.35667
933.0,8.99819,594.648,1980.33,1980.06,8.99832,1.35653
936.0,9.0001,594.813,1985,1984.72,8.99832,1.35653
939.0,8.99979,594.978,1989.66,1989.37,8.9953,1.35351
942.0,8.99055,595.143,1994.32,1994.03,8.99055,1.34876
945.0,8.98197,595.308,1998.98,1998.68,8.98569,1.3439
948.0,8.98901,595.473,2003.63,2003.33,8.98491,1.34312
951.0,8.98176,595.638,2008.28,2007.97,8.98307,1.34128
954.0,8.98383,595.803,2012.93,2012.62,8.98345,1.34166
957.0,8.97231,595.968,2017.58,2017.26,8.97584,1.33405
960.0,8.97457,596.133,2022.22,2021.89,8.97584,1.33405
963.0,8.98354,596.298,2026.86,2026.53,8.97766,1.33587
966.0,8.96564,596.463,2031.5,2031.16,8.97256,1.33077
969.0,8.97223,596.628,2036.14,2035.79,8.96698,1.32519
972.0,8.96708,596.793,2040.77,2040.42,8.96708,1.32529
975.0,8.96537,596.958,2045.4,2045.05,8.96609,1.3243
978.0,8.95513,597.123,2050.03,2049.67,8.95742,1.31563
981.0,8.96133,597.288,2054.66,2054.29,8.95805,1.31626
984.0,8.95962,597.453,2059.28,2058.91,8.95934,1.31755
987.0,8.95913,597.618,2063.9,2063.52,8.95934,1.31755
990.0,8.95563,597.783,2068.52,2068.13,8.9567,1.31491
993.0,8.95358,597.948,2073.14,2072.74,8.95309,1.3113
996.0,8.9497,598.113,2077.75,2077.35,8.9497,1.30791
999.0,8.94355,598.278,2082.36,2081.95,8.94492,1.30313
1002.0,8.94474,598.443,2086.97,2086.56,8.94474,1.30295
1005.0,8.92969,598.608,2091.57,2091.16,8.93211,1.29032
1008.0,8.93841,598.773,2096.18,2095.75,8.93918,1.29739
1011.0,8.94151,598.938,2100.78,2100.35,8.93999,1.2982
1014.0,8.93476,599.103,2105.38,2104.94,8.93576,1.29397
1017.0,8.93096,599.268,2109.97,2109.53,8.93421,1.29242
1020.0,8.93527,599.433,2114.56,2114.12,8.93421,1.29242
1023.0,8.93135,599.598,2119.15,2118.7,8.92945,1.28766
1026.0,8.92456,599.763,2123.74,2123.28,8.92456,1.28277
1029.0,8.92762,599.928,2128.33,2127.86,8.92762,1.28583
1032.0,8.92293,600.093,2132.91,2132.44,8.92293,1.28114
1035.0,8.92193,600.258,2137.49,2137.01,8.92001,1.27822
1038.0,8.91589,600.423,2142.07,2141.59,8.91893,1.27714
1041.0,8.9223,600.588,2146.64,2146.15,8.92195,1.28016
1044.0,8.91547,600.753,2151.22,2150.72,8.91599,1.2742
1047.0,8.91111,600.918,2155.79,2155.29,8.91189,1.2701
1050.0,8.90658,601.083,2160.35,2159.85,8.90887,1.26708
1053.0,8.9075,601.248,2164.92,2164.41,8.9075,1.26571
1056.0,8.90533,601.413,2169.48,2168.96,8.90533,1.26354
1059.0,8.90457,601.578,2174.04,2173.52,8.90457,1.26278
1062.0,8.8988,601.743,2178.6,2178.07,8.89904,1.25725
1065.0,8.90077,601.908,2183.16,2182.62,8.90077,1.25898
1068.0,8.8961,602.073,2187.71,2187.17,8.8992,1.25741
1071.0,8.90262,602.238,2192.26,2191.71,8.90308,1.26129
1074.0,8.89942,602.403,2196.81,2196.25,8.89942,1.25763
1077.0,8.89553,602.568,2201.35,2200.79,8.89553,1.25374
1080.0,8.89738,602.733,2205.89,2205.33,8.89468,1.25289
1083.0,8.8895,602.898,2210.43,2209.86,8.89253,1.25074
1086.0,8.89876,603.063,2214.97,2214.4,8.89557,1.25378
1089.0,8.89304,603.228,2219.51,2218.92,8.89304,1.25125
1092.0,8.89254,603.393,2224.04,2223.45,8.89254,1.25075
1095.0,8.89195,603.558,2228.57,2227.98,8.8931,1.25131
1098.0,8.89103,603.723,2233.1,2232.5,8.88928,1.24749
1101.0,8.88026,603.888,2237.62,2237.02,8.88033,1.23854
1104.0,8.87963,604.053,2242.15,2241.54,8.87963,1.23784
1107.0,8.88159,604.218,2246.67,2246.05,8.88159,1.2398
1110.0,8.87784,604.383,2251.19,2250.56,8.87784,1.23605
1113.0,8.88151,604.548,2255.7,2255.07,8.87943,1.23764
1116.0,8.87665,604.713,2260.21,2259.58,8.87778,1.23599
1119.0,8.87304,604.878,2264.72,2264.08,8.87363,1.23184
1122.0,8.86973,605.043,2269.23,2268.59,8.86973,1.22794
1125.0,8.86999,605.208,2273.74,2273.09,8.86652,1.22473
1128.0,8.86011,605.373,2278.24,2277.58,8.86284,1.22105
1131.0,8.85978,605.538,2282.74,2282.08,8.86284,1.22105
1134.0,8.86455,605.703,2287.24,2286.57,8.86455,1.22276
1137.0,8.86519,605.868,2291.74,2291.06,8.86188,1.22009
1140.0,8.85784,606.033,2296.23,2295.55,8.85919,1.2174
1143.0,8.85599,606.198,2300.72,2300.03,8.85599,1.2142
1146.0,8.85499,606.363,2305.21,2304.52,8.85499,1.2132
1149.0,8.85474,606.528,2309.7,2309,8.85474,1.21295
1152.0,8.84805,606.693,2314.18,2313.47,8.85088,1.20909
1155.0,8.85069,606.858,2318.66,2317.95,8.85134,1.20955
1158.0,8.84998,607.023,2323.14,2322.42,8.84936,1.20757
1161.0,8.84253,607.188,2327.62,2326.89,8.84633,1.20454
1164.0,8.84328,607.353,2332.09,2331.36,8.84615,1.20436
1167.0,8.84393,607.518,2336.56,2335.83,8.84464,1.20285
1170.0,8.84544,607.682,2341.03,2340.29,8.84544,1.20365
1173.0,8.84109,607.847,2345.5,2344.75,8.84109,1.1993
1176.0,8.83828,608.012,2349.96,2349.21,8.83944,1.19765
1179.0,8.84351,608.177,2354.42,2353.67,8.83985,1.19806
1182.0,8.83678,608.342,2358.88,2358.12,8.83566,1.19387
1185.0,8.83402,608.507,2363.34,2362.57,8.8343,1.19251
1188.0,8.83288,608.672,2367.79,2367.02,8.83288,1.19109
1191.0,8.82572,608.837,2372.25,2371.47,8.82755,1.18576
1194.0,8.83465,609.002,2376.7,2375.91,8.83465,1.19286
1197.0,8.82703,609.167,2381.14,2380.35,8.82703,1.18524
1200.0,8.82713,609.332,2385.59,2384.79,8.82588,1.18409
1203.0,8.82082,609.497,2390.03,2389.23,8.82129,1.1795
1206.0,8.81972,609.662,2394.47,2393.66,8.82009,1.1783
1209.0,8.81692,609.827,2398.91,2398.09,8.81967,1.17788
1212.0,8.82082,609.992,2403.34,2402.52,8.81967,1.17788
1215.0,8.8115,610.157,2407.78,2406.95,8.8115,1.16971
1218.0,8.80754,610.322,2412.21,2411.38,8.80855,1.16676
1221.0,8.80506,610.487,2416.63,2415.8,8.80506,1.16327
1224.0,8.80431,610.652,2421.06,2420.22,8.80431,1.16252
1227.0,8.80792,610.817,2425.48,2424.64,8.80792,1.16613
1230.0,8.79878,610.982,2429.9,2429.05,8.80018,1.15839
1233.0,8.80467,611.147,2434.32,2433.46,8.80113,1.15934
1236.0,8.79763,611.312,2438.74,2437.87,8.80014,1.15835
1239.0,8.79618,611.477,2443.15,2442.28,8.79618,1.15439
1242.0,8.79496,611.642,2447.56,2446.69,8.79482,1.15303
1245.0,8.79097,611.807,2451.97,2451.09,8.79308,1.15129
1248.0,8.79498,611.972,2456.38,2455.49,8.7947,1.15291
1251.0,8.78611,612.137,2460.78,2459.89,8.78555,1.14376
1254.0,8.77688,612.302,2465.19,2464.29,8.78476,1.14297
1257.0,8.78637,612.467,2469.59,2468.68,8.78319,1.1414
1260.0,8.77638,612.632,2473.98,2473.07,8.77809,1.1363
1263.0,8.77657,612.797,2478.38,2477.46,8.77733,1.13554
1266.0,8.77524,612.962,2482.77,2481.85,8.77524,1.13345
1269.0,8.77227,613.127,2487.16,2486.23,8.77345,1.13166
1272.0,8.77065,613.292,2491.55,2490.61,8.77065,1.12886
1275.0,8.7695,613.457,2495.93,2494.99,8.76791,1.12612
1278.0,8.75996,613.622,2500.32,2499.37,8.75996,1.11817
1281.0,8.7588,613.787,2504.7,2503.75,8.7588,1.11701
1284.0,8.7604,613.952,2509.07,2508.12,8.76069,1.1189
1287.0,8.75779,614.117,2513.45,2512.49,8.75843,1.11664
1290.0,8.75226,614.282,2517.82,2516.86,8.75226,1.11047
1293.0,8.74847,614.447,2522.19,2521.22,8.74847,1.10668
1296.0,8.7506,614.612,2526.56,2525.59,8.7506,1.10881
1299.0,8.74596,614.777,2530.93,2529.95,8.74318,1.10139
1302.0,8.73769,614.942,2535.29,2534.3,8.73769,1.0959
1305.0,8.73574,615.107,2539.66,2538.66,8.73574,1.09395
1308.0,8.73485,615.272,2544.02,2543.01,8.73507,1.09328
1311.0,8.73222,615.437,2548.37,2547.37,8.73254,1.09075
1314.0,8.7324,615.602,2552.73,2551.72,8.73074,1.08895
1317.0,8.72639,615.767,2557.08,2556.06,8.72651,1.08472
1320.0,8.71882,615.932,2561.43,2560.41,8.72028,1.07849
1323.0,8.72173,616.097,2565.78,2564.75,8.71987,1.07808
1326.0,8.72006,616.262,2570.12,2569.09,8.72006,1.07827
1329.0,8.71822,616.427,2574.47,2573.43,8.71822,1.07643
1332.0,8.70615,616.592,2578.81,2577.76,8.71169,1.0699
1335.0,8.71604,616.757,2583.15,2582.09,8.71169,1.0699
1338.0,8.70677,616.922,2587.48,2586.42,8.70691,1.06512
1341.0,8.71056,617.087,2591.82,2590.75,8.70525,1.06346
1344.0,8.70647,617.252,2596.15,2595.08,8.70406,1.06227
1347.0,8.69346,617.417,2600.48,2599.4,8.69665,1.05486
1350.0,8.70204,617.582,2604.8,2603.72,8.69896,1.05717
1353.0,8.68689,617.747,2609.13,2608.04,8.69363,1.05184
1356.0,8.69202,617.912,2613.45,2612.36,8.69202,1.05023
1359.0,8.6826,618.077,2617.77,2616.67,8.68354,1.04175
1362.0,8.68147,618.242,2622.09,2620.99,8.68147,1.03968
1365.0,8.67655,618.407,2626.4,2625.3,8.67655,1.03476
1368.0,8.68077,618.572,2630.72,2629.6,8.67995,1.03816
1371.0,8.67229,618.737,2635.03,2633.91,8.67229,1.0305
1374.0,8.67217,618.902,2639.34,2638.21,8.67175,1.02996
1377.0,8.66872,619.067,2643.64,2642.51,8.66872,1.02693
1380.0,8.66418,619.232,2647.95,2646.81,8.66418,1.02239
1383.0,8.66565,619.397,2652.25,2651.11,8.66518,1.02339
1386.0,8.66408,619.562,2656.55,2655.4,8.66408,1.02229
1389.0,8.66419,619.727,2660.84,2659.69,8.66241,1.02062
1392.0,8.64905,619.892,2665.14,2663.98,8.65082,1.00903
1395.0,8.64761,620.057,2669.43,2668.27,8.65082,1.00903
1398.0,8.65087,620.222,2673.72,2672.55,8.65087,1.00908
1401.0,8.64279,620.387,2678.01,2676.84,8.64279,1.001
1404.0,8.64191,620.551,2682.29,2681.12,8.64163,0.999843
1407.0,8.63976,620.716,2686.58,2685.39,8.64163,0.999843
1410.0,8.64372,620.881,2690.86,2689.67,8.64159,0.999803
1413.0,8.63246,621.046,2695.14,2693.94,8.63265,0.990863
1416.0,8.63666,621.211,2699.41,2698.21,8.6364,0.994613
1419.0,8.63169,621.376,2703.69,2702.48,8.63169,0.989903
1422.0,8.62272,621.541,2707.96,2706.75,8.62939,0.987603
1425.0,8.63054,621.706,2712.23,2711.01,8.63027,0.988483
1428.0,8.63037,621.871,2716.5,2715.27,8.62702,0.985233
1431.0,8.62203,622.036,2720.76,2719.53,8.62266,0.980873
1434.0,8.62056,622.201,2725.03,2723.79,8.62266,0.980873
1437.0,8.62776,622.366,2729.29,2728.05,8.62733,0.985543
1440.0,8.61377,622.531,2733.54,2732.3,8.61571,0.973923
1443.0,8.61436,622.696,2737.8,2736.55,8.61571,0.973923
1446.0,8.61843,622.861,2742.05,2740.8,8.61678,0.974993
1449.0,8.61353,623.026,2746.31,2745.04,8.61353,0.971743
1452.0,8.59964,623.191,2750.56,2749.29,8.60057,0.958783
1455.0,8.60649,623.356,2754.8,2753.53,8.60315,0.961363
1458.0,8.59654,623.521,2759.05,2757.77,8.60184,0.960053
1461.0,8.59961,623.686,2763.29,2762.01,8.59961,0.957823
1464.0,8.59701,623.851,2767.53,2766.24,8.59701,0.955223
1467.0,8.59408,624.016,2771.77,2770.47,8.59408,0.952293
1470.0,8.59168,624.181,2776,2774.7,8.59168,0.949893
1473.0,8.59259,624.346,2780.24,2778.93,8.5925,0.950713
1476.0,8.591,624.511,2784.47,2783.16,8.58935,0.947563
1479.0,8.58777,624.676,2788.7,2787.38,8.58935,0.947563
1482.0,8.58507,624.841,2792.93,2791.6,8.58573,0.943943
1485.0,8.57686,625.006,2797.15,2795.82,8.57967,0.937883
1488.0,8.58018,625.171,2801.37,2800.04,8.57967,0.937883
1491.0,8.57711,625.336,2805.59,2804.25,8.57906,0.937273
1494.0,8.57694,625.501,2809.81,2808.47,8.57694,0.935153
1497.0,8.57456,625.666,2814.03,2812.68,8.57431,0.932523
1500.0,8.57157,625.831,2818.24,2816.89,8.57142,0.929633
1503.0,8.56803,625.996,2822.45,2821.09,8.56803,0.926243
1506.0,8.56928,626.161,2826.66,2825.3,8.56807,0.926283
1509.0,8.56783,626.326,2830.87,2829.5,8.56703,0.925243
1512.0,8.56453,626.491,2835.07,2833.7,8.56523,0.923443
1515.0,8.5635,626.656,2839.27,2837.89,8.5635,0.921713
1518.0,8.55357,626.821,2843.48,2842.09,8.55651,0.914723
1521.0,8.55055,626.986,2847.67,2846.28,8.55385,0.912063
1524.0,8.55192,627.151,2851.87,2850.47,8.55192,0.910133
1527.0,8.54493,627.316,2856.06,2854.66,8.54714,0.905353
1530.0,8.54837,627.481,2860.25,2858.85,8.55037,0.908583
1533.0,8.54928,627.646,2864.44,2863.03,8.55037,0.908583
1536.0,8.55335,627.811,2868.63,2867.21,8.55157,0.909783
1539.0,8.54776,627.976,2872.82,2871.39,8.54776,0.905973
1542.0,8.54078,628.141,2877,2875.57,8.54145,0.899663
1545.0,8.5453,628.306,2881.18,2879.74,8.54121,0.899423
1548.0,8.54086,628.471,2885.36,2883.92,8.5396,0.897813
1551.0,8.53444,628.636,2889.53,2888.09,8.53909,0.897303
1554.0,8.53321,628.801,2893.71,2892.26,8.53321,0.891423
1557.0,8.53382,628.966,2897.88,2896.42,8.53022,0.888433
1560.0,8.52959,629.131,2902.05,2900.59,8.52959,0.887803
1563.0,8.51974,629.296,2906.21,2904.75,8.52448,0.882693
1566.0,8.5241,629.461,2910.38,2908.91,8.5241,0.882313
1569.0,8.51477,629.626,2914.54,2913.06,8.51511,0.873323
1572.0,8.51696,629.791,2918.7,2917.22,8.51696,0.875173
1575.0,8.51974,629.956,2922.86,2921.37,8.51961,0.877823
1578.0,8.5167,630.121,2927.02,2925.52,8.5167,0.874913
1581.0,8.5118,630.286,2931.17,2929.67,8.51338,0.871593
1584.0,8.51027,630.451,2935.32,2933.82,8.50964,0.867853
1587.0,8.50442,630.616,2939.47,2937.96,8.50753,0.865743
1590.0,8.51349,630.781,2943.62,2942.11,8.50842,0.866633
1593.0,8.50318,630.946,2947.77,2946.25,8.50348,0.861693
1596.0,8.51155,631.111,2951.91,2950.38,8.51155,0.869763
1599.0,8.51423,631.276,2956.05,2954.52,8.51592,0.874133
1602.0,8.5308,631.441,2960.19,2958.65,8.5308,0.889013
1605.0,8.55323,631.606,2964.33,2962.79,8.55323,0.911443
1608.0,8.56122,631.771,2968.46,2966.92,8.56008,0.918293
1611.0,8.55773,631.936,2972.6,2971.04,8.55773,0.915943
1614.0,8.53286,632.101,2976.73,2975.17,8.53286,0.891073
1617.0,8.50712,632.266,2980.85,2979.29,8.50712,0.865333
1620.0,8.48576,632.431,2984.98,2983.41,8.48576,0.843973
1623.0,8.46991,632.596,2989.1,2987.53,8.46991,0.828123
1626.0,8.46855,632.761,2993.23,2991.65,8.46855,0.826763
1629.0,8.47641,632.926,2997.35,2995.76,8.47641,0.834623
1632.0,8.48181,633.091,3001.46,2999.87,8.48075,0.838963
1635.0,8.48088,633.256,3005.58,3003.98,8.48022,0.838433
1638.0,8.47016,633.421,3009.69,3008.09,8.47016,0.828373
1641.0,8.45082,633.585,3013.8,3012.2,8.45082,0.809033
1644.0,8.4409,633.75,3017.91,3016.3,8.4409,0.799113
1647.0,8.43884,633.915,3022.02,3020.4,8.43515,0.793363
1650.0,8.42998,634.08,3026.12,3024.5,8.42998,0.788193
1653.0,8.42158,634.245,3030.23,3028.6,8.42158,0.779793
1656.0,8.41603,634.41,3034.33,3032.69,8.41603,0.774243
1659.0,8.40886,634.575,3038.42,3036.79,8.41086,0.769073
1662.0,8.41322,634.74,3042.52,3040.88,8.40901,0.767223
1665.0,8.40293,634.905,3046.61,3044.97,8.40736,0.765573
1668.0,8.40301,635.07,3050.71,3049.05,8.40373,0.761943
1671.0,8.40181,635.235,3054.8,3053.14,8.40153,0.759743
1674.0,8.40041,635.4,3058.88,3057.22,8.39896,0.757173
1677.0,8.38364,635.565,3062.97,3061.3,8.38402,0.742233
1680.0,8.38042,635.73,3067.05,3065.38,8.38079,0.739003
1683.0,8.38286,635.895,3071.13,3069.45,8.38079,0.739003
1686.0,8.37932,636.06,3075.21,3073.53,8.37888,0.737093
1689.0,8.37799,636.225,3079.29,3077.6,8.37528,0.733493
1692.0,8.37284,636.39,3083.36,3081.67,8.37284,0.731053
1695.0,8.3697,636.555,3087.44,3085.74,8.3697,0.727913
1698.0,8.37092,636.72,3091.51,3089.8,8.37092,0.729133
1701.0,8.36033,636.885,3095.58,3093.87,8.36327,0.721483
1704.0,8.36384,637.05,3099.64,3097.93,8.36299,0.721203
1707.0,8.36169,637.215,3103.71,3101.99,8.36136,0.719573
1710.0,8.35666,637.38,3107.77,3106.04,8.35666,0.714873
1713.0,8.35102,637.545,3111.83,3110.1,8.35178,0.709993
1716.0,8.35156,637.71,3115.89,3114.15,8.35155,0.709763
1719.0,8.35117,637.875,3119.94,3118.2,8.35085,0.709063
1722.0,8.34544,638.04,3124,3122.25,8.34861,0.706823
1725.0,8.34871,638.205,3128.05,3126.3,8.34861,0.706823
1728.0,8.34645,638.37,3132.1,3130.34,8.34645,0.704663
1731.0,8.34155,638.535,3136.15,3134.38,8.34155,0.699763
1734.0,8.33384,638.7,3140.19,3138.42,8.33668,0.694893
1737.0,8.33832,638.865,3144.24,3142.46,8.33623,0.694443
1740.0,8.33325,639.03,3148.28,3146.5,8.33325,0.691463
1743.0,8.32731,639.195,3152.32,3150.53,8.32751,0.685723
1746.0,8.32665,639.36,3156.35,3154.56,8.32475,0.682963
1749.0,8.31673,639.525,3160.39,3158.59,8.31896,0.677173
1752.0,8.32227,639.69,3164.42,3162.62,8.31896,0.677173
1755.0,8.30886,639.855,3168.45,3166.65,8.3122,0.670413
1758.0,8.31345,640.02,3172.48,3170.67,8.31204,0.670253
1761.0,8.30754,640.185,3176.51,3174.69,8.30754,0.665753
1764.0,8.30258,640.35,3180.53,3178.71,8.30249,0.660703
1767.0,8.29701,640.515,3184.55,3182.73,8.3014,0.659613
1770.0,8.29542,640.68,3188.58,3186.74,8.29542,0.653633
1773.0,8.29037,640.845,3192.59,3190.76,8.29001,0.648223
1776.0,8.28708,641.01,3196.61,3194.77,8.28777,0.645983
1779.0,8.28651,641.175,3200.62,3198.78,8.28651,0.644723
1782.0,8.28141,641.34,3204.64,3202.78,8.28224,0.640453
1785.0,8.28018,641.505,3208.65,3206.79,8.2805,0.638713
1788.0,8.27782,641.67,3212.65,3210.79,8.27782,0.636033
1791.0,8.27375,641.835,3216.66,3214.79,8.27375,0.631963
1794.0,8.26657,642,3220.66,3218.79,8.26657,0.624783
1797.0,8.26786,642.165,3224.67,3222.79,8.26563,0.623843
1800.0,8.26137,642.33,3228.67,3226.78,8.26137,0.619583
1803.0,8.25914,642.495,3232.66,3230.78,8.25914,0.617353
1806.0,8.26346,642.66,3236.66,3234.77,8.25954,0.617753
1809.0,8.25495,642.825,3240.65,3238.76,8.25439,0.612603
1812.0,8.25282,642.99,3244.65,3242.74,8.25282,0.611033
1815.0,8.25249,643.155,3248.64,3246.73,8.25203,0.610243
1818.0,8.24683,643.32,3252.62,3250.71,8.24683,0.605043
1821.0,8.2479,643.485,3256.61,3254.69,8.24548,0.603693
1824.0,8.23861,643.65,3260.59,3258.67,8.24063,0.598843
1827.0,8.24071,643.815,3264.57,3262.64,8.23906,0.597273
1830.0,8.23022,643.98,3268.55,3266.62,8.23073,0.588943
1833.0,8.22799,644.145,3272.53,3270.59,8.22986,0.588073
1836.0,8.22815,644.31,3276.51,3274.56,8.22815,0.586363
1839.0,8.22342,644.475,3280.48,3278.53,8.22624,0.584453
1842.0,8.2252,644.64,3284.45,3282.5,8.2252,0.583413
1845.0,8.22363,644.805,3288.42,3286.46,8.22243,0.580643
1848.0,8.21824,644.97,3292.39,3290.42,8.21928,0.577493
1851.0,8.20905,645.135,3296.35,3294.38,8.21068,0.568893
1854.0,8.2098,645.3,3300.31,3298.34,8.20977,0.567983
1857.0,8.2079,645.465,3304.28,3302.3,8.20475,0.562963
1860.0,8.20145,645.63,3308.23,3306.25,8.20422,0.562433
1863.0,8.20243,645.795,3312.19,3310.2,8.20243,0.560643
1866.0,8.20019,645.96,3316.15,3314.15,8.20019,0.558403
1869.0,8.20006,646.125,3320.1,3318.1,8.199,0.557213
1872.0,8.20185,646.29,3324.05,3322.05,8.20168,0.559893
1875.0,8.19507,646.455,3328,3325.99,8.1954,0.553613
1878.0,8.19051,646.619,3331.95,3329.93,8.19051,0.548723
1881.0,8.18429,646.784,3335.89,3333.87,8.18443,0.542643
1884.0,8.18607,646.949,3339.83,3337.81,8.18493,0.543143
1887.0,8.18116,647.114,3343.78,3341.74,8.18368,0.541893
1890.0,8.18834,647.279,3347.71,3345.68,8.184,0.542213
1893.0,8.18294,647.444,3351.65,3349.61,8.18207,0.540283
1896.0,8.17781,647.609,3355.59,3353.54,8.17824,0.536453
1899.0,8.17863,647.774,3359.52,3357.47,8.17824,0.536453
1902.0,8.17631,647.939,3363.45,3361.39,8.17631,0.534523
1905.0,8.17152,648.104,3367.38,3365.32,8.17115,0.529363
1908.0,8.1674,648.269,3371.31,3369.24,8.16793,0.526143
1911.0,8.16846,648.434,3375.23,3373.16,8.16799,0.526203
1914.0,8.16299,648.599,3379.15,3377.08,8.16387,0.522083
1917.0,8.16339,648.764,3383.07,3380.99,8.1611,0.519313
1920.0,8.16445,648.929,3386.99,3384.91,8.16258,0.520793
1923.0,8.15969,649.094,3390.91,3388.82,8.15969,0.517903
1926.0,8.15596,649.259,3394.83,3392.73,8.15596,0.514173
1929.0,8.15711,649.424,3398.74,3396.64,8.15592,0.514133
1932.0,8.1494,649.589,3402.65,3400.54,8.14961,0.507823
1935.0,8.15217,649.754,3406.56,3404.45,8.14822,0.506433
1938.0,8.13667,649.919,3410.47,3408.35,8.1393,0.497513
1941.0,8.1416,650.084,3414.37,3412.25,8.14151,0.499723
1944.0,8.14237,650.249,3418.27,3416.15,8.14151,0.499723
1947.0,8.13396,650.414,3422.17,3420.04,8.1358,0.494013
1950.0,8.1347,650.579,3426.07,3423.94,8.13469,0.492903
1953.0,8.13221,650.744,3429.97,3427.83,8.13084,0.489053
1956.0,8.12779,650.909,3433.87,3431.72,8.12779,0.486003
1959.0,8.12573,651.074,3437.76,3435.61,8.1257,0.483913
1962.0,8.12142,651.239,3441.65,3439.49,8.1229,0.481113
1965.0,8.12059,651.404,3445.54,3443.38,8.12163,0.479843
1968.0,8.11911,651.569,3449.43,3447.26,8.11925,0.477463
1971.0,8.1201,651.734,3453.31,3451.14,8.11925,0.477463
1974.0,8.11553,651.899,3457.2,3455.02,8.11287,0.471083
1977.0,8.10727,652.064,3461.08,3458.89,8.10727,0.465483
1980.0,8.10399,652.229,3464.96,3462.77,8.10453,0.462743
1983.0,8.1036,652.394,3468.83,3466.64,8.1036,0.461813
1986.0,8.10607,652.559,3472.71,3470.51,8.10505,0.463263
1989.0,8.10439,652.724,3476.58,3474.38,8.10505,0.463263
1992.0,8.10261,652.889,3480.45,3478.25,8.10286,0.461073
1995.0,8.10159,653.054,3484.32,3482.11,8.10159,0.459803
1998.0,8.09419,653.219,3488.19,3485.97,8.09419,0.452403
2001.0,8.08934,653.384,3492.06,3489.83,8.08934,0.447553
2004.0,8.08651,653.549,3495.92,3493.69,8.08712,0.445333
2007.0,8.08606,653.714,3499.78,3497.55,8.08627,0.444483
2010.0,8.08352,653.879,3503.64,3501.4,8.08352,0.441733
2013.0,8.07986,654.044,3507.5,3505.26,8.07905,0.437263
2016.0,8.07454,654.209,3511.36,3509.11,8.07618,0.434393
2019.0,8.07725,654.374,3515.21,3512.96,8.07547,0.433683
2022.0,8.07569,654.539,3519.06,3516.8,8.07569,0.433903
2025.0,8.07774,654.704,3522.91,3520.65,8.07765,0.435863
2028.0,8.06655,654.869,3526.76,3524.49,8.06655,0.424763
2031.0,8.06299,655.034,3530.61,3528.33,8.06363,0.421843
2034.0,8.06443,655.199,3534.45,3532.17,8.06491,0.423123
2037.0,8.06321,655.364,3538.29,3536.01,8.06321,0.421423
2040.0,8.0599,655.529,3542.13,3539.85,8.06141,0.419623
2043.0,8.06133,655.694,3545.97,3543.68,8.06133,0.419543
2046.0,8.05085,655.859,3549.81,3547.51,8.05085,0.409063
2047.0,8.04799,655.914,3551.09,3548.79,8.04799,0.406203