File: data/processed/processed_data/2024-09-03/2024-09-03_glycinepowder_n_n_y_solid_10000_0_5.csv
Pixels #,Intensity (a.u.),Wavelength (nm),Raman shift (cm-1),Raman shift (cm-1) adjusted,Filtered Intensity (a.u.),Baselined Filtered Intensity (a.u.)
0.0,0.795529,543.337,392.223,393.994,0.795258,-0.0108126
3.0,0.795353,543.502,397.81,399.573,0.795353,-0.0107176
6.0,0.796236,543.667,403.394,405.15,0.796104,-0.00996679
9.0,0.79642,543.832,408.974,410.723,0.79642,-0.00965102
12.0,0.795719,543.997,414.551,416.293,0.795719,-0.0103523
15.0,0.795384,544.162,420.125,421.859,0.79557,-0.0105017
18.0,0.795949,544.327,425.695,427.422,0.795601,-0.0104712
21.0,0.794688,544.492,431.261,432.981,0.794589,-0.0114838
24.0,0.793847,544.657,436.825,438.537,0.794217,-0.0118565
27.0,0.795926,544.822,442.385,444.09,0.795331,-0.0107433
30.0,0.796027,544.987,447.941,449.64,0.796027,-0.0100481
33.0,0.795386,545.152,453.494,455.186,0.796194,-0.00988209
36.0,0.795928,545.317,459.044,460.728,0.795941,-0.0101361
39.0,0.796351,545.482,464.591,466.268,0.795952,-0.0101263
42.0,0.795491,545.647,470.134,471.804,0.795952,-0.0101275
45.0,0.796416,545.812,475.674,477.337,0.796279,-0.00980175
48.0,0.797916,545.977,481.21,482.866,0.797916,-0.00816613
51.0,0.798361,546.142,486.743,488.392,0.798407,-0.00767658
54.0,0.802055,546.307,492.273,493.915,0.802055,-0.00403009
57.0,0.807788,546.472,497.8,499.434,0.807788,0.00170136
60.0,0.813355,546.637,503.323,504.95,0.813355,0.00726683
63.0,0.819976,546.802,508.843,510.463,0.819976,0.0138864
66.0,0.826509,546.967,514.359,515.972,0.826509,0.020418
69.0,0.830973,547.132,519.872,521.478,0.830973,0.0248809
72.0,0.83604,547.297,525.382,526.981,0.83604,0.0299469
75.0,0.840503,547.462,530.888,532.48,0.840503,0.0344092
78.0,0.848078,547.627,536.392,537.976,0.848078,0.0419838
81.0,0.854185,547.792,541.891,543.469,0.854185,0.0480908
84.0,0.858217,547.957,547.388,548.958,0.858217,0.0521228
87.0,0.861278,548.122,552.881,554.444,0.861278,0.0551838
90.0,0.861884,548.287,558.371,559.927,0.861884,0.0557898
93.0,0.861734,548.452,563.858,565.407,0.862151,0.0560568
96.0,0.864208,548.617,569.341,570.883,0.863384,0.0572898
99.0,0.863282,548.782,574.821,576.356,0.863282,0.0571878
102.0,0.863492,548.947,580.298,581.826,0.863472,0.0573778
105.0,0.864611,549.112,585.771,587.292,0.864611,0.0585168
108.0,0.864007,549.277,591.241,592.755,0.864007,0.0579128
111.0,0.864548,549.442,596.708,598.215,0.864548,0.0584538
114.0,0.864694,549.607,602.172,603.671,0.865327,0.0592328
117.0,0.864547,549.772,607.632,609.125,0.864547,0.0584528
120.0,0.86475,549.937,613.089,614.575,0.864461,0.0583668
123.0,0.864491,550.102,618.543,620.021,0.864309,0.0582148
126.0,0.863741,550.267,623.993,625.465,0.864188,0.0580938
129.0,0.864706,550.432,629.44,630.905,0.864369,0.0582748
132.0,0.863044,550.597,634.884,636.342,0.863044,0.0569498
135.0,0.863473,550.762,640.325,641.776,0.863473,0.0573788
138.0,0.864433,550.927,645.762,647.206,0.864433,0.0583388
141.0,0.864691,551.092,651.197,652.633,0.864797,0.0587028
144.0,0.866466,551.257,656.627,658.057,0.866186,0.0600918
147.0,0.866535,551.422,662.055,663.478,0.866772,0.0606778
150.0,0.869677,551.587,667.48,668.895,0.869344,0.0632498
153.0,0.869316,551.752,672.901,674.309,0.869733,0.0636388
156.0,0.872644,551.917,678.319,679.72,0.872644,0.0665498
159.0,0.8763,552.082,683.733,685.128,0.8763,0.0702058
162.0,0.879169,552.247,689.145,690.533,0.879169,0.0730748
165.0,0.882139,552.412,694.553,695.934,0.882139,0.0760448
168.0,0.886273,552.577,699.958,701.332,0.886273,0.0801788
171.0,0.89081,552.742,705.36,706.727,0.89081,0.0847158
174.0,0.895457,552.907,710.758,712.118,0.895457,0.0893628
177.0,0.900214,553.072,716.154,717.507,0.900214,0.0941198
180.0,0.907277,553.237,721.546,722.892,0.907277,0.101183
183.0,0.915679,553.402,726.935,728.274,0.915679,0.109585
186.0,0.923323,553.567,732.32,733.652,0.923323,0.117229
189.0,0.933608,553.732,737.703,739.028,0.933608,0.127514
192.0,0.943898,553.897,743.082,744.4,0.943898,0.137804
195.0,0.95498,554.062,748.458,749.769,0.95498,0.148886
198.0,0.966596,554.227,753.831,755.135,0.966596,0.160502
201.0,0.982584,554.392,759.201,760.498,0.982584,0.17649
204.0,0.998603,554.557,764.567,765.858,0.998603,0.192509
207.0,1.01685,554.722,769.93,771.214,1.01685,0.210756
210.0,1.0375,554.887,775.29,776.567,1.0375,0.231406
213.0,1.06202,555.052,780.647,781.917,1.06202,0.255926
216.0,1.08525,555.217,786.001,787.264,1.08525,0.279156
219.0,1.10989,555.382,791.352,792.608,1.10989,0.303796
222.0,1.13865,555.546,796.699,797.948,1.13865,0.332556
225.0,1.1707,555.711,802.043,803.285,1.1707,0.364606
228.0,1.20157,555.876,807.384,808.62,1.20157,0.395476
231.0,1.23546,556.041,812.722,813.951,1.23546,0.429366
234.0,1.26966,556.206,818.057,819.278,1.26966,0.463566
237.0,1.30444,556.371,823.388,824.603,1.30444,0.498346
240.0,1.34111,556.536,828.716,829.924,1.34111,0.535016
243.0,1.37543,556.701,834.042,835.243,1.37543,0.569336
246.0,1.40822,556.866,839.364,840.558,1.40822,0.602126
249.0,1.44008,557.031,844.682,845.87,1.44008,0.633986
252.0,1.46933,557.196,849.998,851.179,1.46933,0.663236
255.0,1.49696,557.361,855.311,856.485,1.49696,0.690866
258.0,1.52232,557.526,860.62,861.787,1.52232,0.716226
261.0,1.54209,557.691,865.927,867.087,1.54209,0.735996
264.0,1.56292,557.856,871.23,872.383,1.56292,0.756826
267.0,1.58816,558.021,876.53,877.676,1.58816,0.782066
270.0,1.62125,558.186,881.827,882.966,1.62125,0.815156
273.0,1.64938,558.351,887.12,888.253,1.64938,0.843286
276.0,1.65861,558.516,892.411,893.537,1.658,0.851906
279.0,1.65336,558.681,897.698,898.818,1.65336,0.847266
282.0,1.64002,558.846,902.983,904.095,1.64002,0.833926
285.0,1.63664,559.011,908.264,909.37,1.63679,0.830696
288.0,1.63714,559.176,913.542,914.641,1.63734,0.831246
291.0,1.63976,559.341,918.817,919.909,1.63976,0.833666
294.0,1.64198,559.506,924.089,925.174,1.64198,0.835886
297.0,1.64253,559.671,929.358,930.436,1.64253,0.836436
300.0,1.64192,559.836,934.624,935.695,1.64269,0.836596
303.0,1.64396,560.001,939.886,940.951,1.64304,0.836946
306.0,1.64151,560.166,945.146,946.204,1.64263,0.836536
309.0,1.64289,560.331,950.402,951.454,1.64289,0.836796
312.0,1.64384,560.496,955.656,956.7,1.64333,0.837236
315.0,1.64352,560.661,960.906,961.944,1.64352,0.837426
318.0,1.64531,560.826,966.153,967.184,1.64479,0.838696
321.0,1.64662,560.991,971.397,972.421,1.64662,0.840526
324.0,1.64863,561.156,976.638,977.655,1.64931,0.843216
327.0,1.65128,561.321,981.876,982.887,1.65128,0.845186
330.0,1.65362,561.486,987.111,988.115,1.6542,0.848106
333.0,1.65476,561.651,992.342,993.34,1.65476,0.848666
336.0,1.65989,561.816,997.571,998.562,1.65946,0.853366
339.0,1.66248,561.981,1002.8,1003.78,1.66248,0.856386
342.0,1.6659,562.146,1008.02,1009,1.6659,0.859806
345.0,1.67253,562.311,1013.24,1014.21,1.67253,0.866436
348.0,1.67764,562.476,1018.45,1019.42,1.67764,0.871546
351.0,1.68817,562.641,1023.67,1024.63,1.68817,0.882076
354.0,1.69713,562.806,1028.88,1029.83,1.69713,0.891036
357.0,1.70403,562.971,1034.09,1035.03,1.70388,0.897786
360.0,1.70221,563.136,1039.29,1040.23,1.70221,0.896116
363.0,1.70053,563.301,1044.49,1045.42,1.7006,0.894506
366.0,1.70451,563.466,1049.69,1050.61,1.70415,0.898056
369.0,1.70384,563.631,1054.88,1055.8,1.70464,0.898546
372.0,1.70812,563.796,1060.08,1060.99,1.70812,0.902026
375.0,1.70752,563.961,1065.27,1066.17,1.70892,0.902826
378.0,1.71081,564.126,1070.45,1071.35,1.71081,0.904716
381.0,1.71196,564.291,1075.63,1076.52,1.71192,0.905826
384.0,1.71282,564.456,1080.81,1081.7,1.71282,0.906726
387.0,1.71606,564.621,1085.99,1086.87,1.71559,0.909496
390.0,1.71521,564.786,1091.16,1092.03,1.71562,0.909526
393.0,1.71855,564.951,1096.34,1097.2,1.71855,0.912456
396.0,1.7218,565.116,1101.5,1102.36,1.7218,0.915706
399.0,1.72286,565.281,1106.67,1107.52,1.72286,0.916766
402.0,1.72275,565.446,1111.83,1112.67,1.72281,0.916716
405.0,1.72248,565.611,1116.99,1117.82,1.72252,0.916426
408.0,1.72357,565.776,1122.14,1122.97,1.72386,0.917766
411.0,1.72659,565.941,1127.3,1128.12,1.72659,0.920496
414.0,1.73065,566.106,1132.45,1133.26,1.72992,0.923826
417.0,1.73286,566.271,1137.59,1138.4,1.73286,0.926766
420.0,1.73563,566.436,1142.74,1143.54,1.73449,0.928396
423.0,1.73067,566.601,1147.88,1148.67,1.73067,0.924576
426.0,1.73254,566.766,1153.02,1153.81,1.73152,0.925426
429.0,1.73186,566.931,1158.15,1158.93,1.73276,0.926666
432.0,1.73457,567.096,1163.28,1164.06,1.73457,0.928476
435.0,1.73532,567.261,1168.41,1169.18,1.73543,0.929336
438.0,1.73498,567.426,1173.54,1174.3,1.73546,0.929366
441.0,1.73963,567.591,1178.66,1179.42,1.73963,0.933536
444.0,1.7427,567.756,1183.78,1184.53,1.7427,0.936606
447.0,1.74588,567.921,1188.9,1189.64,1.74545,0.939356
450.0,1.74473,568.086,1194.01,1194.75,1.74545,0.939356
453.0,1.74881,568.251,1199.12,1199.85,1.74881,0.942716
456.0,1.74998,568.416,1204.23,1204.95,1.74998,0.943886
459.0,1.75371,568.58,1209.33,1210.05,1.75335,0.947256
462.0,1.75369,568.745,1214.44,1215.15,1.75386,0.947766
465.0,1.75662,568.91,1219.53,1220.24,1.75662,0.950526
468.0,1.75754,569.075,1224.63,1225.33,1.75768,0.951586
471.0,1.76092,569.24,1229.72,1230.42,1.76056,0.954466
474.0,1.76028,569.405,1234.81,1235.5,1.76056,0.954466
477.0,1.76085,569.57,1239.9,1240.58,1.76085,0.954756
480.0,1.76129,569.735,1244.99,1245.66,1.76129,0.955196
483.0,1.76337,569.9,1250.07,1250.73,1.76337,0.957276
486.0,1.76501,570.065,1255.14,1255.8,1.76501,0.958916
489.0,1.76522,570.23,1260.22,1260.87,1.76564,0.959546
492.0,1.76825,570.395,1265.29,1265.94,1.76729,0.961196
495.0,1.76919,570.56,1270.36,1271,1.76919,0.963096
498.0,1.77078,570.725,1275.43,1276.06,1.77078,0.964686
501.0,1.77408,570.89,1280.49,1281.12,1.77408,0.967986
504.0,1.77571,571.055,1285.55,1286.17,1.77571,0.969616
507.0,1.77724,571.22,1290.61,1291.22,1.77724,0.971146
510.0,1.78183,571.385,1295.67,1296.27,1.78183,0.975736
513.0,1.79084,571.55,1300.72,1301.32,1.79084,0.984746
516.0,1.80105,571.715,1305.77,1306.36,1.80105,0.994956
519.0,1.8177,571.88,1310.81,1311.4,1.8177,1.01161
522.0,1.84542,572.045,1315.86,1316.44,1.84542,1.03933
525.0,1.85941,572.21,1320.9,1321.47,1.85941,1.05332
528.0,1.86002,572.375,1325.94,1326.5,1.86002,1.05393
531.0,1.836,572.54,1330.97,1331.53,1.836,1.02991
534.0,1.81038,572.705,1336,1336.56,1.81038,1.00429
537.0,1.79787,572.87,1341.03,1341.58,1.79787,0.991776
540.0,1.79457,573.035,1346.06,1346.6,1.79485,0.988756
543.0,1.79573,573.2,1351.08,1351.61,1.79525,0.989156
546.0,1.79437,573.365,1356.1,1356.63,1.79525,0.989156
549.0,1.79741,573.53,1361.12,1361.64,1.79741,0.991316
552.0,1.79947,573.695,1366.13,1366.65,1.79886,0.992766
555.0,1.79935,573.86,1371.14,1371.65,1.79935,0.993256
558.0,1.80641,574.025,1376.15,1376.65,1.80641,1.00032
561.0,1.80905,574.19,1381.16,1381.65,1.80905,1.00296
564.0,1.81155,574.355,1386.16,1386.65,1.81155,1.00546
567.0,1.81913,574.52,1391.16,1391.64,1.81913,1.01304
570.0,1.82403,574.685,1396.16,1396.63,1.82403,1.01794
573.0,1.83436,574.85,1401.15,1401.62,1.83436,1.02827
576.0,1.84113,575.015,1406.14,1406.61,1.84113,1.03504
579.0,1.84099,575.18,1411.13,1411.59,1.84135,1.03526
582.0,1.83621,575.345,1416.12,1416.57,1.83621,1.03012
585.0,1.82736,575.51,1421.1,1421.54,1.82736,1.02127
588.0,1.82128,575.675,1426.08,1426.52,1.82224,1.01615
591.0,1.82481,575.84,1431.06,1431.49,1.82481,1.01872
594.0,1.82558,576.005,1436.03,1436.46,1.82629,1.0202
597.0,1.82805,576.17,1441,1441.42,1.82745,1.02136
600.0,1.82943,576.335,1445.97,1446.38,1.82892,1.02283
603.0,1.82913,576.5,1450.94,1451.34,1.82949,1.0234
606.0,1.82907,576.665,1455.9,1456.3,1.82907,1.02298
609.0,1.82698,576.83,1460.86,1461.25,1.82698,1.02089
612.0,1.82088,576.995,1465.82,1466.2,1.82088,1.01479
615.0,1.82105,577.16,1470.77,1471.15,1.8205,1.01441
618.0,1.82063,577.325,1475.72,1476.1,1.82055,1.01446
621.0,1.82073,577.49,1480.67,1481.04,1.82055,1.01446
624.0,1.82114,577.655,1485.62,1485.98,1.82114,1.01505
627.0,1.82472,577.82,1490.56,1490.91,1.82472,1.01863
630.0,1.82804,577.985,1495.5,1495.85,1.82804,1.02195
633.0,1.82895,578.15,1500.44,1500.78,1.82962,1.02353
636.0,1.83417,578.315,1505.37,1505.71,1.83399,1.0279
639.0,1.83396,578.48,1510.3,1510.63,1.83396,1.02787
642.0,1.83535,578.645,1515.23,1515.55,1.83479,1.0287
645.0,1.83324,578.81,1520.16,1520.47,1.83324,1.02715
648.0,1.83292,578.975,1525.08,1525.39,1.83292,1.02683
651.0,1.83526,579.14,1530,1530.31,1.83505,1.02896
654.0,1.83421,579.305,1534.92,1535.22,1.83505,1.02896
657.0,1.8337,579.47,1539.83,1540.13,1.83419,1.0281
660.0,1.83453,579.635,1544.75,1545.03,1.83453,1.02844
663.0,1.83747,579.8,1549.65,1549.93,1.83747,1.03138
666.0,1.83808,579.965,1554.56,1554.83,1.83873,1.03264
669.0,1.84492,580.13,1559.47,1559.73,1.84492,1.03883
672.0,1.85011,580.295,1564.37,1564.63,1.85011,1.04402
675.0,1.84693,580.46,1569.26,1569.52,1.84693,1.04084
678.0,1.84353,580.625,1574.16,1574.41,1.84353,1.03744
681.0,1.84136,580.79,1579.05,1579.29,1.84069,1.0346
684.0,1.83645,580.955,1583.94,1584.18,1.83645,1.03036
687.0,1.83518,581.12,1588.83,1589.06,1.83518,1.02909
690.0,1.83491,581.285,1593.71,1593.94,1.83491,1.02882
693.0,1.83496,581.45,1598.59,1598.81,1.83445,1.02836
696.0,1.83599,581.614,1603.47,1603.68,1.83599,1.0299
699.0,1.83589,581.779,1608.35,1608.55,1.83589,1.0298
702.0,1.83601,581.944,1613.22,1613.42,1.83551,1.02942
705.0,1.83539,582.109,1618.09,1618.28,1.83595,1.02986
708.0,1.83809,582.274,1622.96,1623.15,1.83749,1.0314
711.0,1.83809,582.439,1627.83,1628,1.83809,1.032
714.0,1.83695,582.604,1632.69,1632.86,1.8376,1.03151
717.0,1.83754,582.769,1637.55,1637.71,1.83706,1.03097
720.0,1.83419,582.934,1642.4,1642.56,1.83419,1.0281
723.0,1.83428,583.099,1647.26,1647.41,1.83428,1.02819
726.0,1.83571,583.264,1652.11,1652.26,1.83563,1.02954
729.0,1.83743,583.429,1656.96,1657.1,1.83743,1.03134
732.0,1.83911,583.594,1661.8,1661.94,1.83932,1.03323
735.0,1.84019,583.759,1666.65,1666.77,1.84019,1.0341
738.0,1.84229,583.924,1671.49,1671.61,1.84086,1.03477
741.0,1.83728,584.089,1676.32,1676.44,1.83741,1.03132
744.0,1.83522,584.254,1681.16,1681.27,1.83651,1.03042
747.0,1.83508,584.419,1685.99,1686.09,1.83508,1.02899
750.0,1.83536,584.584,1690.82,1690.92,1.83466,1.02857
753.0,1.83409,584.749,1695.65,1695.74,1.83469,1.0286
756.0,1.83816,584.914,1700.47,1700.55,1.83651,1.03042
759.0,1.83503,585.079,1705.29,1705.37,1.83536,1.02927
762.0,1.83503,585.244,1710.11,1710.18,1.83536,1.02927
765.0,1.83535,585.409,1714.92,1714.99,1.83583,1.02974
768.0,1.83865,585.574,1719.74,1719.8,1.83865,1.03256
771.0,1.83683,585.739,1724.55,1724.6,1.83683,1.03074
774.0,1.83501,585.904,1729.35,1729.4,1.83596,1.02987
777.0,1.8375,586.069,1734.16,1734.2,1.83728,1.03119
780.0,1.83462,586.234,1738.96,1739,1.83531,1.02922
783.0,1.83677,586.399,1743.76,1743.79,1.83531,1.02922
786.0,1.83565,586.564,1748.56,1748.58,1.83556,1.02947
789.0,1.83552,586.729,1753.35,1753.37,1.83644,1.03035
792.0,1.83693,586.894,1758.14,1758.15,1.83693,1.03084
795.0,1.83719,587.059,1762.93,1762.94,1.83644,1.03035
798.0,1.8332,587.224,1767.72,1767.72,1.8352,1.02911
801.0,1.83617,587.389,1772.5,1772.49,1.8352,1.02911
804.0,1.83446,587.554,1777.28,1777.27,1.83524,1.02915
807.0,1.83379,587.719,1782.06,1782.04,1.83379,1.0277
810.0,1.8347,587.884,1786.83,1786.81,1.8347,1.02861
813.0,1.83545,588.049,1791.61,1791.57,1.83545,1.02936
816.0,1.83295,588.214,1796.38,1796.34,1.83343,1.02734
819.0,1.83284,588.379,1801.14,1801.1,1.83298,1.02689
822.0,1.83339,588.544,1805.91,1805.86,1.83339,1.0273
825.0,1.83784,588.709,1810.67,1810.61,1.83703,1.03094
828.0,1.83448,588.874,1815.43,1815.37,1.83496,1.02887
831.0,1.83439,589.039,1820.19,1820.12,1.8345,1.02841
834.0,1.83516,589.204,1824.94,1824.86,1.83516,1.02907
837.0,1.83547,589.369,1829.69,1829.61,1.83547,1.02938
840.0,1.83544,589.534,1834.44,1834.35,1.83543,1.02934
843.0,1.83448,589.699,1839.18,1839.09,1.83531,1.02922
846.0,1.83578,589.864,1843.93,1843.83,1.83578,1.02969
849.0,1.83446,590.029,1848.67,1848.56,1.83446,1.02837
852.0,1.83618,590.194,1853.41,1853.29,1.83532,1.02923
855.0,1.83514,590.359,1858.14,1858.02,1.83545,1.02936
858.0,1.83559,590.524,1862.87,1862.75,1.83595,1.02986
861.0,1.83697,590.689,1867.6,1867.47,1.83697,1.03088
864.0,1.83591,590.854,1872.33,1872.2,1.83591,1.02982
867.0,1.83702,591.019,1877.06,1876.91,1.83692,1.03083
870.0,1.83796,591.184,1881.78,1881.63,1.83748,1.03139
873.0,1.83644,591.349,1886.5,1886.34,1.83591,1.02982
876.0,1.83337,591.514,1891.21,1891.05,1.83363,1.02754
879.0,1.83284,591.679,1895.93,1895.76,1.83363,1.02754
882.0,1.83506,591.844,1900.64,1900.47,1.83493,1.02884
885.0,1.83345,592.009,1905.35,1905.17,1.83345,1.02736
888.0,1.83419,592.174,1910.05,1909.87,1.83365,1.02756
891.0,1.83327,592.339,1914.76,1914.57,1.83327,1.02718
894.0,1.83075,592.504,1919.46,1919.26,1.83099,1.0249
897.0,1.83122,592.669,1924.16,1923.96,1.83121,1.02512
900.0,1.83019,592.834,1928.85,1928.64,1.83019,1.0241
903.0,1.82896,592.999,1933.55,1933.33,1.82902,1.02293
906.0,1.82978,593.164,1938.24,1938.02,1.82978,1.02369
909.0,1.82662,593.329,1942.93,1942.7,1.82683,1.02074
912.0,1.8264,593.494,1947.61,1947.38,1.82648,1.02039
915.0,1.82467,593.659,1952.29,1952.05,1.82467,1.01858
918.0,1.82372,593.824,1956.97,1956.73,1.82372,1.01763
921.0,1.82384,593.989,1961.65,1961.4,1.82328,1.01719
924.0,1.82165,594.154,1966.33,1966.07,1.82165,1.01556
927.0,1.82041,594.319,1971,1970.73,1.82035,1.01426
930.0,1.82091,594.484,1975.67,1975.4,1.82046,1.01437
933.0,1.81852,594.648,1980.33,1980.06,1.81852,1.01243
936.0,1.81535,594.813,1985,1984.72,1.81535,1.00926
939.0,1.81603,594.978,1989.66,1989.37,1.81545,1.00936
942.0,1.81339,595.143,1994.32,1994.03,1.81354,1.00745
945.0,1.8127,595.308,1998.98,1998.68,1.8127,1.00661
948.0,1.81131,595.473,2003.63,2003.33,1.81167,1.00558
951.0,1.81185,595.638,2008.28,2007.97,1.81173,1.00564
954.0,1.80759,595.803,2012.93,2012.62,1.80759,1.0015
957.0,1.80695,595.968,2017.58,2017.26,1.8068,1.00071
960.0,1.80644,596.133,2022.22,2021.89,1.80644,1.00035
963.0,1.80606,596.298,2026.86,2026.53,1.80606,0.999966
966.0,1.80357,596.463,2031.5,2031.16,1.80438,0.998286
969.0,1.80314,596.628,2036.14,2035.79,1.80307,0.996976
972.0,1.80243,596.793,2040.77,2040.42,1.80111,0.995016
975.0,1.79933,596.958,2045.4,2045.05,1.80058,0.994486
978.0,1.79923,597.123,2050.03,2049.67,1.79923,0.993136
981.0,1.79548,597.288,2054.66,2054.29,1.79548,0.989386
984.0,1.79284,597.453,2059.28,2058.91,1.79329,0.987196
987.0,1.79429,597.618,2063.9,2063.52,1.79341,0.987316
990.0,1.79191,597.783,2068.52,2068.13,1.79191,0.985816
993.0,1.78885,597.948,2073.14,2072.74,1.78885,0.982756
996.0,1.78715,598.113,2077.75,2077.35,1.78685,0.980756
999.0,1.78682,598.278,2082.36,2081.95,1.78677,0.980676
1002.0,1.78553,598.443,2086.97,2086.56,1.78553,0.979436
1005.0,1.78146,598.608,2091.57,2091.16,1.78146,0.975366
1008.0,1.78092,598.773,2096.18,2095.75,1.78026,0.974166
1011.0,1.77924,598.938,2100.78,2100.35,1.77859,0.972496
1014.0,1.7788,599.103,2105.38,2104.94,1.77859,0.972496
1017.0,1.77494,599.268,2109.97,2109.53,1.77577,0.969676
1020.0,1.77602,599.433,2114.56,2114.12,1.77499,0.968896
1023.0,1.77391,599.598,2119.15,2118.7,1.77406,0.967966
1026.0,1.77289,599.763,2123.74,2123.28,1.77345,0.967356
1029.0,1.7737,599.928,2128.33,2127.86,1.77232,0.966226
1032.0,1.7706,600.093,2132.91,2132.44,1.7706,0.964506
1035.0,1.76684,600.258,2137.49,2137.01,1.76765,0.961556
1038.0,1.76715,600.423,2142.07,2141.59,1.76766,0.961566
1041.0,1.7672,600.588,2146.64,2146.15,1.7672,0.961106
1044.0,1.76318,600.753,2151.22,2150.72,1.76318,0.957086
1047.0,1.76206,600.918,2155.79,2155.29,1.76069,0.954596
1050.0,1.75934,601.083,2160.35,2159.85,1.75934,0.953246
1053.0,1.75914,601.248,2164.92,2164.41,1.75902,0.952926
1056.0,1.75519,601.413,2169.48,2168.96,1.7558,0.949706
1059.0,1.75603,601.578,2174.04,2173.52,1.75577,0.949676
1062.0,1.75365,601.743,2178.6,2178.07,1.75333,0.947236
1065.0,1.74929,601.908,2183.16,2182.62,1.75031,0.944216
1068.0,1.75149,602.073,2187.71,2187.17,1.74969,0.943596
1071.0,1.74802,602.238,2192.26,2191.71,1.74935,0.943256
1074.0,1.74965,602.403,2196.81,2196.25,1.74965,0.943556
1077.0,1.7464,602.568,2201.35,2200.79,1.7464,0.940306
1080.0,1.74546,602.733,2205.89,2205.33,1.74541,0.939316
1083.0,1.74763,602.898,2210.43,2209.86,1.74652,0.940426
1086.0,1.74499,603.063,2214.97,2214.4,1.74499,0.938896
1089.0,1.74175,603.228,2219.51,2218.92,1.74175,0.935656
1092.0,1.74199,603.393,2224.04,2223.45,1.74199,0.935896
1095.0,1.74019,603.558,2228.57,2227.98,1.74142,0.935326
1098.0,1.74069,603.723,2233.1,2232.5,1.74069,0.934596
1101.0,1.74108,603.888,2237.62,2237.02,1.73994,0.933846
1104.0,1.73797,604.053,2242.15,2241.54,1.73797,0.931876
1107.0,1.73761,604.218,2246.67,2246.05,1.73758,0.931486
1110.0,1.73571,604.383,2251.19,2250.56,1.73654,0.930446
1113.0,1.73619,604.548,2255.7,2255.07,1.73619,0.930096
1116.0,1.73303,604.713,2260.21,2259.58,1.73392,0.927826
1119.0,1.73365,604.878,2264.72,2264.08,1.73365,0.927556
1122.0,1.73133,605.043,2269.23,2268.59,1.73128,0.925186
1125.0,1.72836,605.208,2273.74,2273.09,1.72836,0.922266
1128.0,1.72688,605.373,2278.24,2277.58,1.72688,0.920786
1131.0,1.72513,605.538,2282.74,2282.08,1.72616,0.920066
1134.0,1.72506,605.703,2287.24,2286.57,1.72506,0.918966
1137.0,1.72468,605.868,2291.74,2291.06,1.72368,0.917586
1140.0,1.72233,606.033,2296.23,2295.55,1.72233,0.916236
1143.0,1.72177,606.198,2300.72,2300.03,1.72156,0.915466
1146.0,1.72023,606.363,2305.21,2304.52,1.72023,0.914136
1149.0,1.71855,606.528,2309.7,2309,1.71855,0.912456
1152.0,1.7175,606.693,2314.18,2313.47,1.71705,0.910956
1155.0,1.71699,606.858,2318.66,2317.95,1.71682,0.910726
1158.0,1.71515,607.023,2323.14,2322.42,1.71588,0.909786
1161.0,1.71504,607.188,2327.62,2326.89,1.71572,0.909626
1164.0,1.71584,607.353,2332.09,2331.36,1.71495,0.908856
1167.0,1.70988,607.518,2336.56,2335.83,1.71105,0.904956
1170.0,1.7123,607.682,2341.03,2340.29,1.71105,0.904956
1173.0,1.71037,607.847,2345.5,2344.75,1.71037,0.904276
1176.0,1.70803,608.012,2349.96,2349.21,1.70804,0.901946
1179.0,1.70739,608.177,2354.42,2353.67,1.70755,0.901456
1182.0,1.70667,608.342,2358.88,2358.12,1.70667,0.900576
1185.0,1.70402,608.507,2363.34,2362.57,1.70445,0.898356
1188.0,1.70355,608.672,2367.79,2367.02,1.70355,0.897456
1191.0,1.70202,608.837,2372.25,2371.47,1.70202,0.895926
1194.0,1.70154,609.002,2376.7,2375.91,1.70212,0.896026
1197.0,1.70077,609.167,2381.14,2380.35,1.70077,0.894676
1200.0,1.69621,609.332,2385.59,2384.79,1.6964,0.890306
1203.0,1.6953,609.497,2390.03,2389.23,1.69533,0.889236
1206.0,1.69556,609.662,2394.47,2393.66,1.69502,0.888926
1209.0,1.69369,609.827,2398.91,2398.09,1.69369,0.887596
1212.0,1.69107,609.992,2403.34,2402.52,1.69197,0.885876
1215.0,1.69211,610.157,2407.78,2406.95,1.69201,0.885916
1218.0,1.68873,610.322,2412.21,2411.38,1.68873,0.882636
1221.0,1.69052,610.487,2416.63,2415.8,1.6904,0.884306
1224.0,1.68748,610.652,2421.06,2420.22,1.68748,0.881386
1227.0,1.68433,610.817,2425.48,2424.64,1.68433,0.878236
1230.0,1.68281,610.982,2429.9,2429.05,1.68281,0.876716
1233.0,1.6821,611.147,2434.32,2433.46,1.6821,0.876006
1236.0,1.68086,611.312,2438.74,2437.87,1.68016,0.874066
1239.0,1.67723,611.477,2443.15,2442.28,1.67822,0.872126
1242.0,1.67731,611.642,2447.56,2446.69,1.677,0.870906
1245.0,1.6748,611.807,2451.97,2451.09,1.67645,0.870356
1248.0,1.67632,611.972,2456.38,2455.49,1.67632,0.870226
1251.0,1.67397,612.137,2460.78,2459.89,1.67358,0.867486
1254.0,1.67186,612.302,2465.19,2464.29,1.67233,0.866236
1257.0,1.6712,612.467,2469.59,2468.68,1.67102,0.864926
1260.0,1.66859,612.632,2473.98,2473.07,1.66859,0.862496
1263.0,1.66625,612.797,2478.38,2477.46,1.6661,0.860006
1266.0,1.6645,612.962,2482.77,2481.85,1.66467,0.858576
1269.0,1.66341,613.127,2487.16,2486.23,1.66341,0.857316
1272.0,1.66117,613.292,2491.55,2490.61,1.66117,0.855076
1275.0,1.65815,613.457,2495.93,2494.99,1.65868,0.852586
1278.0,1.65776,613.622,2500.32,2499.37,1.65833,0.852236
1281.0,1.65732,613.787,2504.7,2503.75,1.65732,0.851226
1284.0,1.65444,613.952,2509.07,2508.12,1.65511,0.849016
1287.0,1.65547,614.117,2513.45,2512.49,1.65511,0.849016
1290.0,1.64904,614.282,2517.82,2516.86,1.65052,0.844426
1293.0,1.65091,614.447,2522.19,2521.22,1.65015,0.844056
1296.0,1.64788,614.612,2526.56,2525.59,1.64788,0.841786
1299.0,1.64423,614.777,2530.93,2529.95,1.64423,0.838136
1302.0,1.64184,614.942,2535.29,2534.3,1.64184,0.835746
1305.0,1.64179,615.107,2539.66,2538.66,1.64068,0.834586
1308.0,1.63646,615.272,2544.02,2543.01,1.63797,0.831876
1311.0,1.637,615.437,2548.37,2547.37,1.63635,0.830256
1314.0,1.63442,615.602,2552.73,2551.72,1.63442,0.828326
1317.0,1.63325,615.767,2557.08,2556.06,1.63325,0.827156
1320.0,1.63077,615.932,2561.43,2560.41,1.63077,0.824676
1323.0,1.62847,616.097,2565.78,2564.75,1.62847,0.822376
1326.0,1.62511,616.262,2570.12,2569.09,1.62587,0.819776
1329.0,1.62523,616.427,2574.47,2573.43,1.62523,0.819136
1332.0,1.62176,616.592,2578.81,2577.76,1.62176,0.815666
1335.0,1.61858,616.757,2583.15,2582.09,1.61858,0.812486
1338.0,1.61658,616.922,2587.48,2586.42,1.61719,0.811096
1341.0,1.61566,617.087,2591.82,2590.75,1.61749,0.811396
1344.0,1.61817,617.252,2596.15,2595.08,1.61659,0.810496
1347.0,1.61336,617.417,2600.48,2599.4,1.61336,0.807266
1350.0,1.61321,617.582,2604.8,2603.72,1.61307,0.806976
1353.0,1.61135,617.747,2609.13,2608.04,1.61135,0.805256
1356.0,1.60866,617.912,2613.45,2612.36,1.60866,0.802566
1359.0,1.60456,618.077,2617.77,2616.67,1.60519,0.799096
1362.0,1.60469,618.242,2622.09,2620.99,1.60415,0.798056
1365.0,1.60113,618.407,2626.4,2625.3,1.60113,0.795036
1368.0,1.59786,618.572,2630.72,2629.6,1.59786,0.791766
1371.0,1.59586,618.737,2635.03,2633.91,1.59586,0.789766
1374.0,1.59508,618.902,2639.34,2638.21,1.59465,0.788556
1377.0,1.59392,619.067,2643.64,2642.51,1.59392,0.787826
1380.0,1.59193,619.232,2647.95,2646.81,1.59193,0.785836
1383.0,1.58666,619.397,2652.25,2651.11,1.58731,0.781216
1386.0,1.58761,619.562,2656.55,2655.4,1.58761,0.781516
1389.0,1.58664,619.727,2660.84,2659.69,1.58664,0.780546
1392.0,1.58331,619.892,2665.14,2663.98,1.58331,0.777216
1395.0,1.58243,620.057,2669.43,2668.27,1.58199,0.775896
1398.0,1.5794,620.222,2673.72,2672.55,1.5794,0.773306
1401.0,1.5766,620.387,2678.01,2676.84,1.5766,0.770506
1404.0,1.57578,620.551,2682.29,2681.12,1.57578,0.769686
1407.0,1.57285,620.716,2686.58,2685.39,1.57316,0.767066
1410.0,1.57296,620.881,2690.86,2689.67,1.57286,0.766766
1413.0,1.57109,621.046,2695.14,2693.94,1.57109,0.764996
1416.0,1.57088,621.211,2699.41,2698.21,1.57,0.763906
1419.0,1.56868,621.376,2703.69,2702.48,1.56868,0.762586
1422.0,1.56665,621.541,2707.96,2706.75,1.56682,0.760726
1425.0,1.56534,621.706,2712.23,2711.01,1.56534,0.759246
1428.0,1.5625,621.871,2716.5,2715.27,1.5625,0.756406
1431.0,1.56139,622.036,2720.76,2719.53,1.56186,0.755766
1434.0,1.56114,622.201,2725.03,2723.79,1.56114,0.755046
1437.0,1.56021,622.366,2729.29,2728.05,1.55954,0.753446
1440.0,1.55798,622.531,2733.54,2732.3,1.55902,0.752926
1443.0,1.5581,622.696,2737.8,2736.55,1.5581,0.752006
1446.0,1.55447,622.861,2742.05,2740.8,1.55483,0.748736
1449.0,1.55328,623.026,2746.31,2745.04,1.55328,0.747186
1452.0,1.54991,623.191,2750.56,2749.29,1.55065,0.744556
1455.0,1.55137,623.356,2754.8,2753.53,1.55052,0.744426
1458.0,1.54651,623.521,2759.05,2757.77,1.54769,0.741596
1461.0,1.54759,623.686,2763.29,2762.01,1.54759,0.741496
1464.0,1.54681,623.851,2767.53,2766.24,1.54618,0.740086
1467.0,1.54331,624.016,2771.77,2770.47,1.54331,0.737216
1470.0,1.54136,624.181,2776,2774.7,1.54136,0.735266
1473.0,1.54043,624.346,2780.24,2778.93,1.54084,0.734746
1476.0,1.53959,624.511,2784.47,2783.16,1.53959,0.733496
1479.0,1.53904,624.676,2788.7,2787.38,1.53904,0.732946
1482.0,1.53729,624.841,2792.93,2791.6,1.53729,0.731196
1485.0,1.53446,625.006,2797.15,2795.82,1.53446,0.728366
1488.0,1.53263,625.171,2801.37,2800.04,1.533,0.726906
1491.0,1.53358,625.336,2805.59,2804.25,1.533,0.726906
1494.0,1.53075,625.501,2809.81,2808.47,1.53075,0.724656
1497.0,1.52947,625.666,2814.03,2812.68,1.52947,0.723376
1500.0,1.52783,625.831,2818.24,2816.89,1.52783,0.721736
1503.0,1.52698,625.996,2822.45,2821.09,1.52676,0.720666
1506.0,1.52672,626.161,2826.66,2825.3,1.52672,0.720626
1509.0,1.52491,626.326,2830.87,2829.5,1.52491,0.718816
1512.0,1.52199,626.491,2835.07,2833.7,1.52199,0.715896
1515.0,1.52025,626.656,2839.27,2837.89,1.52025,0.714156
1518.0,1.51639,626.821,2843.48,2842.09,1.51654,0.710446
1521.0,1.51698,626.986,2847.67,2846.28,1.5165,0.710406
1524.0,1.51446,627.151,2851.87,2850.47,1.51493,0.708836
1527.0,1.51518,627.316,2856.06,2854.66,1.51493,0.708836
1530.0,1.51156,627.481,2860.25,2858.85,1.51156,0.705466
1533.0,1.51071,627.646,2864.44,2863.03,1.51092,0.704826
1536.0,1.5118,627.811,2868.63,2867.21,1.51101,0.704916
1539.0,1.51102,627.976,2872.82,2871.39,1.51101,0.704916
1542.0,1.50988,628.141,2877,2875.57,1.51033,0.704236
1545.0,1.50979,628.306,2881.18,2879.74,1.50982,0.703726
1548.0,1.50583,628.471,2885.36,2883.92,1.50583,0.699736
1551.0,1.50488,628.636,2889.53,2888.09,1.50439,0.698296
1554.0,1.50346,628.801,2893.71,2892.26,1.50346,0.697366
1557.0,1.50244,628.966,2897.88,2896.42,1.50244,0.696346
1560.0,1.50177,629.131,2902.05,2900.59,1.50133,0.695236
1563.0,1.49752,629.296,2906.21,2904.75,1.49752,0.691426
1566.0,1.49549,629.461,2910.38,2908.91,1.49511,0.689016
1569.0,1.49096,629.626,2914.54,2913.06,1.49214,0.686046
1572.0,1.49212,629.791,2918.7,2917.22,1.49197,0.685876
1575.0,1.49148,629.956,2922.86,2921.37,1.49148,0.685386
1578.0,1.48791,630.121,2927.02,2925.52,1.48829,0.682196
1581.0,1.4879,630.286,2931.17,2929.67,1.48778,0.681686
1584.0,1.48691,630.451,2935.32,2933.82,1.48691,0.680816
1587.0,1.4847,630.616,2939.47,2937.96,1.48542,0.679326
1590.0,1.48667,630.781,2943.62,2942.11,1.48546,0.679366
1593.0,1.48686,630.946,2947.77,2946.25,1.48686,0.680766
1596.0,1.48861,631.111,2951.91,2950.38,1.48861,0.682516
1599.0,1.49909,631.276,2956.05,2954.52,1.49909,0.692996
1602.0,1.51196,631.441,2960.19,2958.65,1.51196,0.705866
1605.0,1.52824,631.606,2964.33,2962.79,1.52824,0.722146
1608.0,1.53543,631.771,2968.46,2966.92,1.53543,0.729336
1611.0,1.53403,631.936,2972.6,2971.04,1.53403,0.727936
1614.0,1.51654,632.101,2976.73,2975.17,1.51654,0.710446
1617.0,1.49885,632.266,2980.85,2979.29,1.49885,0.692756
1620.0,1.48051,632.431,2984.98,2983.41,1.48051,0.674416
1623.0,1.46635,632.596,2989.1,2987.53,1.46635,0.660256
1626.0,1.46169,632.761,2993.23,2991.65,1.46217,0.656076
1629.0,1.46333,632.926,2997.35,2995.76,1.46333,0.657236
1632.0,1.47067,633.091,3001.46,2999.87,1.47022,0.664126
1635.0,1.46993,633.256,3005.58,3003.98,1.47022,0.664126
1638.0,1.46283,633.421,3009.69,3008.09,1.46283,0.656736
1641.0,1.45232,633.585,3013.8,3012.2,1.45232,0.646226
1644.0,1.44001,633.75,3017.91,3016.3,1.44001,0.633916
1647.0,1.4326,633.915,3022.02,3020.4,1.4326,0.626506
1650.0,1.42639,634.08,3026.12,3024.5,1.42639,0.620296
1653.0,1.42203,634.245,3030.23,3028.6,1.42203,0.615936
1656.0,1.41787,634.41,3034.33,3032.69,1.41787,0.611776
1659.0,1.41502,634.575,3038.42,3036.79,1.41502,0.608926
1662.0,1.41308,634.74,3042.52,3040.88,1.41308,0.606986
1665.0,1.40942,634.905,3046.61,3044.97,1.40949,0.603396
1668.0,1.40692,635.07,3050.71,3049.05,1.40692,0.600826
1671.0,1.40455,635.235,3054.8,3053.14,1.40455,0.598456
1674.0,1.40187,635.4,3058.88,3057.22,1.40187,0.595776
1677.0,1.39708,635.565,3062.97,3061.3,1.39708,0.590986
1680.0,1.3946,635.73,3067.05,3065.38,1.3946,0.588506
1683.0,1.39218,635.895,3071.13,3069.45,1.39218,0.586086
1686.0,1.38962,636.06,3075.21,3073.53,1.38962,0.583526
1689.0,1.38718,636.225,3079.29,3077.6,1.38746,0.581366
1692.0,1.38527,636.39,3083.36,3081.67,1.38527,0.579176
1695.0,1.38272,636.555,3087.44,3085.74,1.38294,0.576846
1698.0,1.38242,636.72,3091.51,3089.8,1.38242,0.576326
1701.0,1.3787,636.885,3095.58,3093.87,1.3787,0.572606
1704.0,1.3761,637.05,3099.64,3097.93,1.37619,0.570096
1707.0,1.37517,637.215,3103.71,3101.99,1.37517,0.569076
1710.0,1.37333,637.38,3107.77,3106.04,1.37333,0.567236
1713.0,1.37091,637.545,3111.83,3110.1,1.37114,0.565046
1716.0,1.3697,637.71,3115.89,3114.15,1.3697,0.563606
1719.0,1.36883,637.875,3119.94,3118.2,1.36828,0.562186
1722.0,1.36771,638.04,3124,3122.25,1.36771,0.561616
1725.0,1.36705,638.205,3128.05,3126.3,1.36705,0.560956
1728.0,1.36437,638.37,3132.1,3130.34,1.36482,0.558726
1731.0,1.36293,638.535,3136.15,3134.38,1.3637,0.557606
1734.0,1.36481,638.7,3140.19,3138.42,1.3635,0.557406
1737.0,1.36196,638.865,3144.24,3142.46,1.36196,0.555866
1740.0,1.35843,639.03,3148.28,3146.5,1.35843,0.552336
1743.0,1.35349,639.195,3152.32,3150.53,1.35361,0.547516
1746.0,1.3508,639.36,3156.35,3154.56,1.3508,0.544706
1749.0,1.34952,639.525,3160.39,3158.59,1.34952,0.543426
1752.0,1.3451,639.69,3164.42,3162.62,1.3451,0.539006
1755.0,1.34193,639.855,3168.45,3166.65,1.34193,0.535836
1758.0,1.33854,640.02,3172.48,3170.67,1.33854,0.532446
1761.0,1.33719,640.185,3176.51,3174.69,1.33719,0.531096
1764.0,1.33272,640.35,3180.53,3178.71,1.33272,0.526626
1767.0,1.33037,640.515,3184.55,3182.73,1.33037,0.524276
1770.0,1.32783,640.68,3188.58,3186.74,1.32783,0.521736
1773.0,1.3251,640.845,3192.59,3190.76,1.3251,0.519006
1776.0,1.32237,641.01,3196.61,3194.77,1.32237,0.516276
1779.0,1.32098,641.175,3200.62,3198.78,1.32098,0.514886
1782.0,1.31941,641.34,3204.64,3202.78,1.31941,0.513316
1785.0,1.31562,641.505,3208.65,3206.79,1.31562,0.509526
1788.0,1.31253,641.67,3212.65,3210.79,1.31253,0.506436
1791.0,1.30922,641.835,3216.66,3214.79,1.30922,0.503126
1794.0,1.3105,642,3220.66,3218.79,1.30886,0.502766
1797.0,1.30569,642.165,3224.67,3222.79,1.30569,0.499596
1800.0,1.30322,642.33,3228.67,3226.78,1.30322,0.497126
1803.0,1.30193,642.495,3232.66,3230.78,1.30193,0.495836
1806.0,1.29944,642.66,3236.66,3234.77,1.29906,0.492966
1809.0,1.29682,642.825,3240.65,3238.76,1.29682,0.490726
1812.0,1.29493,642.99,3244.65,3242.74,1.29493,0.488836
1815.0,1.29299,643.155,3248.64,3246.73,1.29299,0.486896
1818.0,1.28938,643.32,3252.62,3250.71,1.28955,0.483456
1821.0,1.28899,643.485,3256.61,3254.69,1.28899,0.482896
1824.0,1.28631,643.65,3260.59,3258.67,1.28631,0.480216
1827.0,1.28355,643.815,3264.57,3262.64,1.28355,0.477456
1830.0,1.28226,643.98,3268.55,3266.62,1.28226,0.476166
1833.0,1.28071,644.145,3272.53,3270.59,1.27981,0.473716
1836.0,1.27614,644.31,3276.51,3274.56,1.27669,0.470596
1839.0,1.27639,644.475,3280.48,3278.53,1.27584,0.469746
1842.0,1.27233,644.64,3284.45,3282.5,1.27264,0.466546
1845.0,1.27298,644.805,3288.42,3286.46,1.27254,0.466446
1848.0,1.2689,644.97,3292.39,3290.42,1.2689,0.462806
1851.0,1.26673,645.135,3296.35,3294.38,1.26673,0.460636
1854.0,1.26586,645.3,3300.31,3298.34,1.26586,0.459766
1857.0,1.26192,645.465,3304.28,3302.3,1.26192,0.455826
1860.0,1.26095,645.63,3308.23,3306.25,1.26048,0.454386
1863.0,1.25864,645.795,3312.19,3310.2,1.2586,0.452506
1866.0,1.2571,645.96,3316.15,3314.15,1.2571,0.451006
1869.0,1.25586,646.125,3320.1,3318.1,1.25637,0.450276
1872.0,1.25535,646.29,3324.05,3322.05,1.25535,0.449256
1875.0,1.25104,646.455,3328,3325.99,1.25212,0.446026
1878.0,1.25197,646.619,3331.95,3329.93,1.25197,0.445876
1881.0,1.24853,646.784,3335.89,3333.87,1.24853,0.442436
1884.0,1.24419,646.949,3339.83,3337.81,1.24557,0.439476
1887.0,1.24615,647.114,3343.78,3341.74,1.24476,0.438666
1890.0,1.24373,647.279,3347.71,3345.68,1.24397,0.437876
1893.0,1.24179,647.444,3351.65,3349.61,1.24179,0.435696
1896.0,1.2386,647.609,3355.59,3353.54,1.23947,0.433376
1899.0,1.23735,647.774,3359.52,3357.47,1.23751,0.431416
1902.0,1.23606,647.939,3363.45,3361.39,1.23573,0.429636
1905.0,1.23371,648.104,3367.38,3365.32,1.23371,0.427616
1908.0,1.23114,648.269,3371.31,3369.24,1.23114,0.425046
1911.0,1.23029,648.434,3375.23,3373.16,1.23029,0.424196
1914.0,1.22804,648.599,3379.15,3377.08,1.22804,0.421946
1917.0,1.2267,648.764,3383.07,3380.99,1.22689,0.420796
1920.0,1.22668,648.929,3386.99,3384.91,1.22646,0.420366
1923.0,1.22089,649.094,3390.91,3388.82,1.22109,0.414996
1926.0,1.22035,649.259,3394.83,3392.73,1.22035,0.414256
1929.0,1.21936,649.424,3398.74,3396.64,1.21899,0.412896
1932.0,1.21834,649.589,3402.65,3400.54,1.21834,0.412246
1935.0,1.21528,649.754,3406.56,3404.45,1.21528,0.409186
1938.0,1.21166,649.919,3410.47,3408.35,1.21166,0.405566
1941.0,1.21014,650.084,3414.37,3412.25,1.21014,0.404046
1944.0,1.20724,650.249,3418.27,3416.15,1.20745,0.401356
1947.0,1.20704,650.414,3422.17,3420.04,1.20704,0.400946
1950.0,1.20381,650.579,3426.07,3423.94,1.20381,0.397716
1953.0,1.20231,650.744,3429.97,3427.83,1.20258,0.396486
1956.0,1.20069,650.909,3433.87,3431.72,1.20069,0.394596
1959.0,1.19921,651.074,3437.76,3435.61,1.19921,0.393116
1962.0,1.19628,651.239,3441.65,3439.49,1.19628,0.390186
1965.0,1.19599,651.404,3445.54,3443.38,1.19582,0.389726
1968.0,1.19408,651.569,3449.43,3447.26,1.19408,0.387986
1971.0,1.19084,651.734,3453.31,3451.14,1.19084,0.384746
1974.0,1.18998,651.899,3457.2,3455.02,1.18997,0.383876
1977.0,1.18836,652.064,3461.08,3458.89,1.18836,0.382266
1980.0,1.18688,652.229,3464.96,3462.77,1.18688,0.380786
1983.0,1.18436,652.394,3468.83,3466.64,1.18424,0.378146
1986.0,1.18376,652.559,3472.71,3470.51,1.18344,0.377346
1989.0,1.18142,652.724,3476.58,3474.38,1.18142,0.375326
1992.0,1.18084,652.889,3480.45,3478.25,1.1814,0.375306
1995.0,1.18003,653.054,3484.32,3482.11,1.18003,0.373936
1998.0,1.17702,653.219,3488.19,3485.97,1.17702,0.370926
2001.0,1.17454,653.384,3492.06,3489.83,1.17454,0.368446
2004.0,1.17459,653.549,3495.92,3493.69,1.17424,0.368146
2007.0,1.17157,653.714,3499.78,3497.55,1.17157,0.365476
2010.0,1.17088,653.879,3503.64,3501.4,1.17068,0.364586
2013.0,1.1675,654.044,3507.5,3505.26,1.1675,0.361406
2016.0,1.16583,654.209,3511.36,3509.11,1.16673,0.360636
2019.0,1.1658,654.374,3515.21,3512.96,1.1658,0.359706
2022.0,1.16257,654.539,3519.06,3516.8,1.16329,0.357196
2025.0,1.1624,654.704,3522.91,3520.65,1.1624,0.356306
2028.0,1.15732,654.869,3526.76,3524.49,1.15841,0.352316
2031.0,1.15866,655.034,3530.61,3528.33,1.1581,0.352006
2034.0,1.15777,655.199,3534.45,3532.17,1.15777,0.351676
2037.0,1.15375,655.364,3538.29,3536.01,1.15375,0.347656
2040.0,1.15426,655.529,3542.13,3539.85,1.15426,0.348166
2043.0,1.15312,655.694,3545.97,3543.68,1.15312,0.347026
2046.0,1.1509,655.859,3549.81,3547.51,1.1509,0.344806
2047.0,1.15084,655.914,3551.09,3548.79,1.15084,0.344746