File: data/processed/processed_data/2024-09-03/2024-09-03_glycinepowder_n_n_y_solid_1000_0_1.csv
Pixels #,Intensity (a.u.),Wavelength (nm),Raman shift (cm-1),Raman shift (cm-1) adjusted,Filtered Intensity (a.u.),Baselined Filtered Intensity (a.u.)
0.0,7.5633,543.337,392.223,393.994,7.56109,-0.0659736
3.0,7.5631,543.502,397.81,399.573,7.5631,-0.063964
6.0,7.56454,543.667,403.394,405.15,7.56407,-0.0629949
9.0,7.56312,543.832,408.974,410.723,7.56312,-0.0639464
12.0,7.56245,543.997,414.551,416.293,7.5624,-0.0646685
15.0,7.55959,544.162,420.125,421.859,7.5624,-0.0646711
18.0,7.56477,544.327,425.695,427.422,7.56262,-0.0644543
21.0,7.56341,544.492,431.261,432.981,7.56341,-0.0636681
24.0,7.56318,544.657,436.825,438.537,7.56498,-0.0621024
27.0,7.56217,544.822,442.385,444.09,7.56217,-0.0649173
30.0,7.56175,544.987,447.941,449.64,7.56175,-0.0653427
33.0,7.55807,545.152,453.494,455.186,7.55969,-0.0674088
36.0,7.56455,545.317,459.044,460.728,7.56338,-0.0637254
39.0,7.56106,545.482,464.591,466.268,7.56106,-0.0660526
42.0,7.56385,545.647,470.134,471.804,7.56313,-0.0639904
45.0,7.56056,545.812,475.674,477.337,7.56429,-0.0628387
48.0,7.56571,545.977,481.21,482.866,7.56522,-0.0619176
51.0,7.56287,546.142,486.743,488.392,7.56405,-0.063097
54.0,7.56728,546.307,492.273,493.915,7.56728,-0.059877
57.0,7.57433,546.472,497.8,499.434,7.57433,-0.0528376
60.0,7.58505,546.637,503.323,504.95,7.58505,-0.0421285
63.0,7.59249,546.802,508.843,510.463,7.59249,-0.0346999
66.0,7.59702,546.967,514.359,515.972,7.59702,-0.0301816
69.0,7.60215,547.132,519.872,521.478,7.60215,-0.0250635
72.0,7.61096,547.297,525.382,526.981,7.61096,-0.0162657
75.0,7.61827,547.462,530.888,532.48,7.61827,-0.00896796
78.0,7.62359,547.627,536.392,537.976,7.62359,-0.00366035
81.0,7.63517,547.792,541.891,543.469,7.63326,0.00599724
84.0,7.63296,547.957,547.388,548.958,7.63369,0.00641488
87.0,7.63983,548.122,552.881,554.444,7.64005,0.0127626
90.0,7.64269,548.287,558.371,559.927,7.64269,0.0153904
93.0,7.64067,548.452,563.858,565.407,7.64126,0.0139484
96.0,7.64163,548.617,569.341,570.883,7.64157,0.0142465
99.0,7.64404,548.782,574.821,576.356,7.64279,0.0154547
102.0,7.64056,548.947,580.298,581.826,7.64303,0.015683
105.0,7.64771,549.112,585.771,587.292,7.64483,0.0174715
108.0,7.64135,549.277,591.241,592.755,7.64387,0.0165001
111.0,7.64648,549.442,596.708,598.215,7.64524,0.0178589
114.0,7.645,549.607,602.172,603.671,7.64524,0.0178478
117.0,7.64369,549.772,607.632,609.125,7.6441,0.0166969
120.0,7.64535,549.937,613.089,614.575,7.6439,0.0164862
123.0,7.63911,550.102,618.543,620.021,7.63911,0.0116856
126.0,7.64866,550.267,623.993,625.465,7.64866,0.0212251
129.0,7.64933,550.432,629.44,630.905,7.64933,0.0218848
132.0,7.64517,550.597,634.884,636.342,7.6455,0.0180447
135.0,7.64266,550.762,640.325,641.776,7.64509,0.0176247
138.0,7.64488,550.927,645.762,647.206,7.64485,0.0173749
141.0,7.64749,551.092,651.197,652.633,7.64714,0.0196553
144.0,7.64764,551.257,656.627,658.057,7.6472,0.0197058
147.0,7.64604,551.422,662.055,663.478,7.64932,0.0218165
150.0,7.65216,551.587,667.48,668.895,7.65086,0.0233474
153.0,7.65704,551.752,672.901,674.309,7.65586,0.0283384
156.0,7.65966,551.917,678.319,679.72,7.65942,0.0318898
159.0,7.6625,552.082,683.733,685.128,7.6625,0.0349614
162.0,7.66354,552.247,689.145,690.533,7.66398,0.0364333
165.0,7.6649,552.412,694.553,695.934,7.6649,0.0373455
168.0,7.67304,552.577,699.958,701.332,7.67304,0.0454781
171.0,7.67704,552.742,705.36,706.727,7.67851,0.050941
174.0,7.68336,552.907,710.758,712.118,7.68336,0.0557845
177.0,7.69213,553.072,716.154,717.507,7.69024,0.0626584
180.0,7.69725,553.237,721.546,722.892,7.69725,0.0696629
183.0,7.71296,553.402,726.935,728.274,7.71029,0.082698
186.0,7.71548,553.567,732.32,733.652,7.71548,0.0878838
189.0,7.72496,553.732,737.703,739.028,7.72525,0.0976504
192.0,7.73754,553.897,743.082,744.4,7.73754,0.109938
195.0,7.75323,554.062,748.458,749.769,7.75323,0.125626
198.0,7.7682,554.227,753.831,755.135,7.7682,0.140596
201.0,7.7796,554.392,759.201,760.498,7.7796,0.151996
204.0,7.79837,554.557,764.567,765.858,7.79837,0.170766
207.0,7.8237,554.722,769.93,771.214,7.8237,0.196096
210.0,7.84367,554.887,775.29,776.567,7.84367,0.216066
213.0,7.86967,555.052,780.647,781.917,7.86967,0.242066
216.0,7.89775,555.217,786.001,787.264,7.89775,0.270146
219.0,7.92453,555.382,791.352,792.608,7.92453,0.296926
222.0,7.96698,555.546,796.699,797.948,7.96698,0.339376
225.0,7.99605,555.711,802.043,803.285,7.99605,0.368446
228.0,8.03325,555.876,807.384,808.62,8.03325,0.405646
231.0,8.0707,556.041,812.722,813.951,8.0707,0.443096
234.0,8.10884,556.206,818.057,819.278,8.10884,0.481236
237.0,8.14627,556.371,823.388,824.603,8.14627,0.518666
240.0,8.17922,556.536,828.716,829.924,8.17922,0.551616
243.0,8.23352,556.701,834.042,835.243,8.23352,0.605916
246.0,8.26162,556.866,839.364,840.558,8.26162,0.634016
249.0,8.29374,557.031,844.682,845.87,8.29374,0.666136
252.0,8.33645,557.196,849.998,851.179,8.33645,0.708846
255.0,8.35798,557.361,855.311,856.485,8.35798,0.730376
258.0,8.38897,557.526,860.62,861.787,8.38897,0.761366
261.0,8.42194,557.691,865.927,867.087,8.42194,0.794336
264.0,8.45209,557.856,871.23,872.383,8.45209,0.824486
267.0,8.47298,558.021,876.53,877.676,8.47298,0.845376
270.0,8.51447,558.186,881.827,882.966,8.51447,0.886866
273.0,8.54144,558.351,887.12,888.253,8.53948,0.911876
276.0,8.54955,558.516,892.411,893.537,8.54865,0.921046
279.0,8.55172,558.681,897.698,898.818,8.548,0.920396
282.0,8.53761,558.846,902.983,904.095,8.53761,0.910006
285.0,8.5277,559.011,908.264,909.37,8.52787,0.900266
288.0,8.52947,559.176,913.542,914.641,8.52947,0.901866
291.0,8.53777,559.341,918.817,919.909,8.53385,0.906246
294.0,8.52824,559.506,924.089,925.174,8.53751,0.909906
297.0,8.54473,559.671,929.358,930.436,8.54356,0.915956
300.0,8.54141,559.836,934.624,935.695,8.54282,0.915216
303.0,8.53777,560.001,939.886,940.951,8.54282,0.915216
306.0,8.5395,560.166,945.146,946.204,8.54055,0.912946
309.0,8.53642,560.331,950.402,951.454,8.53825,0.910646
312.0,8.5364,560.496,955.656,956.7,8.53825,0.910646
315.0,8.54589,560.661,960.906,961.944,8.54298,0.915376
318.0,8.53468,560.826,966.153,967.184,8.5353,0.907696
321.0,8.54228,560.991,971.397,972.421,8.54228,0.914676
324.0,8.55021,561.156,976.638,977.655,8.54661,0.919006
327.0,8.54285,561.321,981.876,982.887,8.54514,0.917536
330.0,8.54745,561.486,987.111,988.115,8.54745,0.919846
333.0,8.54379,561.651,992.342,993.34,8.54656,0.918956
336.0,8.56185,561.816,997.571,998.562,8.56242,0.934816
339.0,8.56625,561.981,1002.8,1003.78,8.56625,0.938646
342.0,8.5725,562.146,1008.02,1009,8.57194,0.944336
345.0,8.57214,562.311,1013.24,1014.21,8.57244,0.944836
348.0,8.58341,562.476,1018.45,1019.42,8.58341,0.955806
351.0,8.59382,562.641,1023.67,1024.63,8.59382,0.966216
354.0,8.60049,562.806,1028.88,1029.83,8.60185,0.974246
357.0,8.59666,562.971,1034.09,1035.03,8.60006,0.972456
360.0,8.61691,563.136,1039.29,1040.23,8.60905,0.981446
363.0,8.60235,563.301,1044.49,1045.42,8.60798,0.980376
366.0,8.60864,563.466,1049.69,1050.61,8.60798,0.980376
369.0,8.60703,563.631,1054.88,1055.8,8.60397,0.976366
372.0,8.59835,563.796,1060.08,1060.99,8.60052,0.972916
375.0,8.60266,563.961,1065.27,1066.17,8.60266,0.975056
378.0,8.61848,564.126,1070.45,1071.35,8.6155,0.987896
381.0,8.61338,564.291,1075.63,1076.52,8.61338,0.985776
384.0,8.61503,564.456,1080.81,1081.7,8.61503,0.987426
387.0,8.62356,564.621,1085.99,1086.87,8.62492,0.997316
390.0,8.63915,564.786,1091.16,1092.03,8.63418,1.00658
393.0,8.62765,564.951,1096.34,1097.2,8.63418,1.00658
396.0,8.63497,565.116,1101.5,1102.36,8.63497,1.00737
399.0,8.63049,565.281,1106.67,1107.52,8.63049,1.00289
402.0,8.6322,565.446,1111.83,1112.67,8.63162,1.00402
405.0,8.62802,565.611,1116.99,1117.82,8.63098,1.00338
408.0,8.63174,565.776,1122.14,1122.97,8.63154,1.00394
411.0,8.64172,565.941,1127.3,1128.12,8.63995,1.01235
414.0,8.63392,566.106,1132.45,1133.26,8.63392,1.00632
417.0,8.63877,566.271,1137.59,1138.4,8.63877,1.01117
420.0,8.63444,566.436,1142.74,1143.54,8.63549,1.00789
423.0,8.64396,566.601,1147.88,1148.67,8.64094,1.01334
426.0,8.62811,566.766,1153.02,1153.81,8.64094,1.01334
429.0,8.64491,566.931,1158.15,1158.93,8.64491,1.01731
432.0,8.64488,567.096,1163.28,1164.06,8.64488,1.01728
435.0,8.64297,567.261,1168.41,1169.18,8.63876,1.01116
438.0,8.64309,567.426,1173.54,1174.3,8.64309,1.01549
441.0,8.64637,567.591,1178.66,1179.42,8.64637,1.01877
444.0,8.65657,567.756,1183.78,1184.53,8.65657,1.02897
447.0,8.66038,567.921,1188.9,1189.64,8.65953,1.03193
450.0,8.64862,568.086,1194.01,1194.75,8.65756,1.02996
453.0,8.66322,568.251,1199.12,1199.85,8.66009,1.03249
456.0,8.66238,568.416,1204.23,1204.95,8.66238,1.03478
459.0,8.67024,568.58,1209.33,1210.05,8.66427,1.03667
462.0,8.65289,568.745,1214.44,1215.15,8.65498,1.02738
465.0,8.66632,568.91,1219.53,1220.24,8.6643,1.0367
468.0,8.66604,569.075,1224.63,1225.33,8.6643,1.0367
471.0,8.65388,569.24,1229.72,1230.42,8.66377,1.03617
474.0,8.68655,569.405,1234.81,1235.5,8.68409,1.05649
477.0,8.67027,569.57,1239.9,1240.58,8.67214,1.04454
480.0,8.68162,569.735,1244.99,1245.66,8.68,1.0524
483.0,8.67674,569.9,1250.07,1250.73,8.68002,1.05242
486.0,8.67724,570.065,1255.14,1255.8,8.67724,1.04964
489.0,8.67349,570.23,1260.22,1260.87,8.67349,1.04589
492.0,8.68267,570.395,1265.29,1265.94,8.68185,1.05425
495.0,8.68878,570.56,1270.36,1271,8.68292,1.05532
498.0,8.68203,570.725,1275.43,1276.06,8.682,1.0544
501.0,8.67475,570.89,1280.49,1281.12,8.67822,1.05062
504.0,8.69592,571.055,1285.55,1286.17,8.69404,1.06644
507.0,8.69296,571.22,1290.61,1291.22,8.69322,1.06562
510.0,8.68467,571.385,1295.67,1296.27,8.69322,1.06562
513.0,8.71984,571.55,1300.72,1301.32,8.71038,1.08278
516.0,8.70945,571.715,1305.77,1306.36,8.71038,1.08278
519.0,8.73022,571.88,1310.81,1311.4,8.73022,1.10262
522.0,8.78056,572.045,1315.86,1316.44,8.78056,1.15296
525.0,8.77072,572.21,1320.9,1321.47,8.77964,1.15204
528.0,8.7686,572.375,1325.94,1326.5,8.7686,1.141
531.0,8.76083,572.54,1330.97,1331.53,8.76059,1.13299
534.0,8.72647,572.705,1336,1336.56,8.72647,1.09887
537.0,8.71159,572.87,1341.03,1341.58,8.70945,1.08185
540.0,8.72094,573.035,1346.06,1346.6,8.70945,1.08185
543.0,8.709,573.2,1351.08,1351.61,8.71653,1.08893
546.0,8.7163,573.365,1356.1,1356.63,8.71818,1.09058
549.0,8.72238,573.53,1361.12,1361.64,8.71843,1.09083
552.0,8.72149,573.695,1366.13,1366.65,8.71583,1.08823
555.0,8.72049,573.86,1371.14,1371.65,8.72316,1.09556
558.0,8.72271,574.025,1376.15,1376.65,8.72781,1.10021
561.0,8.73791,574.19,1381.16,1381.65,8.73791,1.11031
564.0,8.73753,574.355,1386.16,1386.65,8.7411,1.1135
567.0,8.749,574.52,1391.16,1391.64,8.749,1.1214
570.0,8.7604,574.685,1396.16,1396.63,8.75642,1.12882
573.0,8.761,574.85,1401.15,1401.62,8.75789,1.13029
576.0,8.76521,575.015,1406.14,1406.61,8.76545,1.13785
579.0,8.76773,575.18,1411.13,1411.59,8.76773,1.14013
582.0,8.76039,575.345,1416.12,1416.57,8.76039,1.13279
585.0,8.76097,575.51,1421.1,1421.54,8.75764,1.13004
588.0,8.74762,575.675,1426.08,1426.52,8.74784,1.12024
591.0,8.75822,575.84,1431.06,1431.49,8.75822,1.13062
594.0,8.75665,576.005,1436.03,1436.46,8.76077,1.13317
597.0,8.7668,576.17,1441,1441.42,8.76077,1.13317
600.0,8.759,576.335,1445.97,1446.38,8.759,1.1314
603.0,8.76199,576.5,1450.94,1451.34,8.76199,1.13439
606.0,8.74965,576.665,1455.9,1456.3,8.75821,1.13061
609.0,8.76669,576.83,1460.86,1461.25,8.76045,1.13285
612.0,8.75421,576.995,1465.82,1466.2,8.7559,1.1283
615.0,8.75332,577.16,1470.77,1471.15,8.7514,1.1238
618.0,8.74534,577.325,1475.72,1476.1,8.7458,1.1182
621.0,8.74391,577.49,1480.67,1481.04,8.74452,1.11692
624.0,8.75373,577.655,1485.62,1485.98,8.75373,1.12613
627.0,8.75906,577.82,1490.56,1490.91,8.76046,1.13286
630.0,8.77292,577.985,1495.5,1495.85,8.76704,1.13944
633.0,8.76097,578.15,1500.44,1500.78,8.76503,1.13743
636.0,8.7633,578.315,1505.37,1505.71,8.76503,1.13743
639.0,8.77046,578.48,1510.3,1510.63,8.7722,1.1446
642.0,8.78854,578.645,1515.23,1515.55,8.78195,1.15435
645.0,8.77156,578.81,1520.16,1520.47,8.77156,1.14396
648.0,8.76217,578.975,1525.08,1525.39,8.7649,1.1373
651.0,8.76173,579.14,1530,1530.31,8.76692,1.13932
654.0,8.76246,579.305,1534.92,1535.22,8.76692,1.13932
657.0,8.77711,579.47,1539.83,1540.13,8.77105,1.14345
660.0,8.78215,579.635,1544.75,1545.03,8.77426,1.14666
663.0,8.77342,579.8,1549.65,1549.93,8.77171,1.14411
666.0,8.77485,579.965,1554.56,1554.83,8.77485,1.14725
669.0,8.78502,580.13,1559.47,1559.73,8.78502,1.15742
672.0,8.79289,580.295,1564.37,1564.63,8.79188,1.16428
675.0,8.78538,580.46,1569.26,1569.52,8.77418,1.14658
678.0,8.76767,580.625,1574.16,1574.41,8.77011,1.14251
681.0,8.7902,580.79,1579.05,1579.29,8.78766,1.16006
684.0,8.78408,580.955,1583.94,1584.18,8.78401,1.15641
687.0,8.77894,581.12,1588.83,1589.06,8.77894,1.15134
690.0,8.77096,581.285,1593.71,1593.94,8.77527,1.14767
693.0,8.76887,581.45,1598.59,1598.81,8.77478,1.14718
696.0,8.7738,581.614,1603.47,1603.68,8.7738,1.1462
699.0,8.7767,581.779,1608.35,1608.55,8.77446,1.14686
702.0,8.77282,581.944,1613.22,1613.42,8.77229,1.14469
705.0,8.76303,582.109,1618.09,1618.28,8.76794,1.14034
708.0,8.77601,582.274,1622.96,1623.15,8.77601,1.14841
711.0,8.78441,582.439,1627.83,1628,8.783,1.1554
714.0,8.78053,582.604,1632.69,1632.86,8.78053,1.15293
717.0,8.78526,582.769,1637.55,1637.71,8.7779,1.1503
720.0,8.77168,582.934,1642.4,1642.56,8.77505,1.14745
723.0,8.7706,583.099,1647.26,1647.41,8.77505,1.14745
726.0,8.78116,583.264,1652.11,1652.26,8.77766,1.15006
729.0,8.77281,583.429,1656.96,1657.1,8.77766,1.15006
732.0,8.78888,583.594,1661.8,1661.94,8.78318,1.15558
735.0,8.79272,583.759,1666.65,1666.77,8.79272,1.16512
738.0,8.78857,583.924,1671.49,1671.61,8.78911,1.16151
741.0,8.78717,584.089,1676.32,1676.44,8.78746,1.15986
744.0,8.78138,584.254,1681.16,1681.27,8.78293,1.15533
747.0,8.77775,584.419,1685.99,1686.09,8.77769,1.15009
750.0,8.77162,584.584,1690.82,1690.92,8.77418,1.14658
753.0,8.78654,584.749,1695.65,1695.74,8.78051,1.15291
756.0,8.7758,584.914,1700.47,1700.55,8.78379,1.15619
759.0,8.7939,585.079,1705.29,1705.37,8.79152,1.16392
762.0,8.79593,585.244,1710.11,1710.18,8.79152,1.16392
765.0,8.77241,585.409,1714.92,1714.99,8.77635,1.14875
768.0,8.77649,585.574,1719.74,1719.8,8.78024,1.15264
771.0,8.7789,585.739,1724.55,1724.6,8.7789,1.1513
774.0,8.79284,585.904,1729.35,1729.4,8.79284,1.16524
777.0,8.77702,586.069,1734.16,1734.2,8.77852,1.15092
780.0,8.77632,586.234,1738.96,1739,8.77852,1.15092
783.0,8.77441,586.399,1743.76,1743.79,8.77887,1.15127
786.0,8.78047,586.564,1748.56,1748.58,8.78047,1.15287
789.0,8.78645,586.729,1753.35,1753.37,8.77856,1.15096
792.0,8.77523,586.894,1758.14,1758.15,8.7723,1.1447
795.0,8.77369,587.059,1762.93,1762.94,8.77369,1.14609
798.0,8.79435,587.224,1767.72,1767.72,8.79626,1.16866
801.0,8.79667,587.389,1772.5,1772.49,8.79667,1.16907
804.0,8.78781,587.554,1777.28,1777.27,8.78849,1.16089
807.0,8.78918,587.719,1782.06,1782.04,8.78918,1.16158
810.0,8.78556,587.884,1786.83,1786.81,8.78669,1.15909
813.0,8.78505,588.049,1791.61,1791.57,8.78669,1.15909
816.0,8.78068,588.214,1796.38,1796.34,8.78068,1.15308
819.0,8.78093,588.379,1801.14,1801.1,8.7835,1.1559
822.0,8.78709,588.544,1805.91,1805.86,8.7852,1.1576
825.0,8.78042,588.709,1810.67,1810.61,8.78042,1.15282
828.0,8.7805,588.874,1815.43,1815.37,8.78206,1.15446
831.0,8.77987,589.039,1820.19,1820.12,8.77987,1.15227
834.0,8.77594,589.204,1824.94,1824.86,8.77661,1.14901
837.0,8.77914,589.369,1829.69,1829.61,8.77914,1.15154
840.0,8.78721,589.534,1834.44,1834.35,8.78427,1.15667
843.0,8.78051,589.699,1839.18,1839.09,8.78726,1.15966
846.0,8.78328,589.864,1843.93,1843.83,8.78958,1.16198
849.0,8.79541,590.029,1848.67,1848.56,8.78996,1.16236
852.0,8.78862,590.194,1853.41,1853.29,8.78996,1.16236
855.0,8.78453,590.359,1858.14,1858.02,8.78453,1.15693
858.0,8.78518,590.524,1862.87,1862.75,8.78518,1.15758
861.0,8.79387,590.689,1867.6,1867.47,8.79387,1.16627
864.0,8.78706,590.854,1872.33,1872.2,8.79394,1.16634
867.0,8.79956,591.019,1877.06,1876.91,8.79225,1.16465
870.0,8.78448,591.184,1881.78,1881.63,8.78863,1.16103
873.0,8.78405,591.349,1886.5,1886.34,8.78863,1.16103
876.0,8.79965,591.514,1891.21,1891.05,8.7913,1.1637
879.0,8.78782,591.679,1895.93,1895.76,8.78889,1.16129
882.0,8.78434,591.844,1900.64,1900.47,8.78889,1.16129
885.0,8.79063,592.009,1905.35,1905.17,8.7928,1.1652
888.0,8.79139,592.174,1910.05,1909.87,8.79182,1.16422
891.0,8.78772,592.339,1914.76,1914.57,8.78689,1.15929
894.0,8.78193,592.504,1919.46,1919.26,8.78193,1.15433
897.0,8.78322,592.669,1924.16,1923.96,8.78322,1.15562
900.0,8.77711,592.834,1928.85,1928.64,8.77827,1.15067
903.0,8.7856,592.999,1933.55,1933.33,8.78326,1.15566
906.0,8.78291,593.164,1938.24,1938.02,8.78291,1.15531
909.0,8.76544,593.329,1942.93,1942.7,8.77435,1.14675
912.0,8.78558,593.494,1947.61,1947.38,8.78039,1.15279
915.0,8.77311,593.659,1952.29,1952.05,8.77781,1.15021
918.0,8.78251,593.824,1956.97,1956.73,8.77781,1.15021
921.0,8.7823,593.989,1961.65,1961.4,8.78178,1.15418
924.0,8.76706,594.154,1966.33,1966.07,8.76727,1.13967
927.0,8.75856,594.319,1971,1970.73,8.76078,1.13318
930.0,8.76561,594.484,1975.67,1975.4,8.76561,1.13801
933.0,8.75778,594.648,1980.33,1980.06,8.76622,1.13862
936.0,8.77288,594.813,1985,1984.72,8.76475,1.13715
939.0,8.75985,594.978,1989.66,1989.37,8.76229,1.13469
942.0,8.77258,595.143,1994.32,1994.03,8.77119,1.14359
945.0,8.76463,595.308,1998.98,1998.68,8.76709,1.13949
948.0,8.77557,595.473,2003.63,2003.33,8.76709,1.13949
951.0,8.75723,595.638,2008.28,2007.97,8.7581,1.1305
954.0,8.76649,595.803,2012.93,2012.62,8.76649,1.13889
957.0,8.77278,595.968,2017.58,2017.26,8.77278,1.14518
960.0,8.75755,596.133,2022.22,2021.89,8.75747,1.12987
963.0,8.75555,596.298,2026.86,2026.53,8.75476,1.12716
966.0,8.74699,596.463,2031.5,2031.16,8.75303,1.12543
969.0,8.75409,596.628,2036.14,2035.79,8.75409,1.12649
972.0,8.75088,596.793,2040.77,2040.42,8.7545,1.1269
975.0,8.75511,596.958,2045.4,2045.05,8.75511,1.12751
978.0,8.74751,597.123,2050.03,2049.67,8.75004,1.12244
981.0,8.73933,597.288,2054.66,2054.29,8.74623,1.11863
984.0,8.757,597.453,2059.28,2058.91,8.74623,1.11863
987.0,8.73356,597.618,2063.9,2063.52,8.73704,1.10944
990.0,8.73617,597.783,2068.52,2068.13,8.7344,1.1068
993.0,8.72583,597.948,2073.14,2072.74,8.73007,1.10247
996.0,8.73973,598.113,2077.75,2077.35,8.73341,1.10581
999.0,8.73321,598.278,2082.36,2081.95,8.73385,1.10625
1002.0,8.7254,598.443,2086.97,2086.56,8.73008,1.10248
1005.0,8.72879,598.608,2091.57,2091.16,8.73008,1.10248
1008.0,8.73417,598.773,2096.18,2095.75,8.7378,1.1102
1011.0,8.72766,598.938,2100.78,2100.35,8.73097,1.10337
1014.0,8.72947,599.103,2105.38,2104.94,8.72917,1.10157
1017.0,8.71481,599.268,2109.97,2109.53,8.71666,1.08906
1020.0,8.72531,599.433,2114.56,2114.12,8.71666,1.08906
1023.0,8.71519,599.598,2119.15,2118.7,8.72221,1.09461
1026.0,8.7201,599.763,2123.74,2123.28,8.7201,1.0925
1029.0,8.71322,599.928,2128.33,2127.86,8.71363,1.08603
1032.0,8.72085,600.093,2132.91,2132.44,8.71429,1.08669
1035.0,8.71574,600.258,2137.49,2137.01,8.72309,1.09549
1038.0,8.73068,600.423,2142.07,2141.59,8.72465,1.09705
1041.0,8.7069,600.588,2146.64,2146.15,8.7069,1.0793
1044.0,8.69801,600.753,2151.22,2150.72,8.70362,1.07602
1047.0,8.69537,600.918,2155.79,2155.29,8.69537,1.06777
1050.0,8.69526,601.083,2160.35,2159.85,8.69526,1.06766
1053.0,8.71548,601.248,2164.92,2164.41,8.71247,1.08487
1056.0,8.70599,601.413,2169.48,2168.96,8.70599,1.07839
1059.0,8.69723,601.578,2174.04,2173.52,8.69841,1.07081
1062.0,8.69834,601.743,2178.6,2178.07,8.70033,1.07273
1065.0,8.69435,601.908,2183.16,2182.62,8.69813,1.07053
1068.0,8.69996,602.073,2187.71,2187.17,8.69813,1.07053
1071.0,8.7037,602.238,2192.26,2191.71,8.70051,1.07291
1074.0,8.69558,602.403,2196.81,2196.25,8.70051,1.07291
1077.0,8.70176,602.568,2201.35,2200.79,8.70381,1.07621
1080.0,8.69963,602.733,2205.89,2205.33,8.69963,1.07203
1083.0,8.68344,602.898,2210.43,2209.86,8.68344,1.05584
1086.0,8.67378,603.063,2214.97,2214.4,8.67518,1.04758
1089.0,8.68919,603.228,2219.51,2218.92,8.68919,1.06159
1092.0,8.68376,603.393,2224.04,2223.45,8.68916,1.06156
1095.0,8.69523,603.558,2228.57,2227.98,8.69015,1.06255
1098.0,8.68661,603.723,2233.1,2232.5,8.68757,1.05997
1101.0,8.69047,603.888,2237.62,2237.02,8.69039,1.06279
1104.0,8.68182,604.053,2242.15,2241.54,8.68336,1.05576
1107.0,8.67799,604.218,2246.67,2246.05,8.68,1.0524
1110.0,8.68219,604.383,2251.19,2250.56,8.68351,1.05591
1113.0,8.68208,604.548,2255.7,2255.07,8.68357,1.05597
1116.0,8.67817,604.713,2260.21,2259.58,8.68058,1.05298
1119.0,8.68878,604.878,2264.72,2264.08,8.6867,1.0591
1122.0,8.68141,605.043,2269.23,2268.59,8.6867,1.0591
1125.0,8.69049,605.208,2273.74,2273.09,8.68275,1.05515
1128.0,8.66361,605.373,2278.24,2277.58,8.67358,1.04598
1131.0,8.67808,605.538,2282.74,2282.08,8.67735,1.04975
1134.0,8.67259,605.703,2287.24,2286.57,8.67163,1.04403
1137.0,8.6668,605.868,2291.74,2291.06,8.6696,1.042
1140.0,8.66928,606.033,2296.23,2295.55,8.67076,1.04316
1143.0,8.6658,606.198,2300.72,2300.03,8.6658,1.0382
1146.0,8.65713,606.363,2305.21,2304.52,8.65711,1.02951
1149.0,8.66229,606.528,2309.7,2309,8.65969,1.03209
1152.0,8.65455,606.693,2314.18,2313.47,8.65901,1.03141
1155.0,8.66836,606.858,2318.66,2317.95,8.66833,1.04073
1158.0,8.66944,607.023,2323.14,2322.42,8.66944,1.04184
1161.0,8.66271,607.188,2327.62,2326.89,8.66273,1.03513
1164.0,8.65699,607.353,2332.09,2331.36,8.66249,1.03489
1167.0,8.65652,607.518,2336.56,2335.83,8.65652,1.02892
1170.0,8.65296,607.682,2341.03,2340.29,8.64953,1.02193
1173.0,8.64518,607.847,2345.5,2344.75,8.64518,1.01758
1176.0,8.65068,608.012,2349.96,2349.21,8.64443,1.01683
1179.0,8.64134,608.177,2354.42,2353.67,8.64306,1.01546
1182.0,8.64279,608.342,2358.88,2358.12,8.64279,1.01519
1185.0,8.65368,608.507,2363.34,2362.57,8.65013,1.02253
1188.0,8.65364,608.672,2367.79,2367.02,8.64883,1.02123
1191.0,8.63972,608.837,2372.25,2371.47,8.63972,1.01212
1194.0,8.63185,609.002,2376.7,2375.91,8.63223,1.00463
1197.0,8.63986,609.167,2381.14,2380.35,8.63972,1.01212
1200.0,8.6318,609.332,2385.59,2384.79,8.63255,1.00495
1203.0,8.64527,609.497,2390.03,2389.23,8.63598,1.00838
1206.0,8.63273,609.662,2394.47,2393.66,8.63586,1.00826
1209.0,8.63473,609.827,2398.91,2398.09,8.63581,1.00821
1212.0,8.63014,609.992,2403.34,2402.52,8.63558,1.00798
1215.0,8.62965,610.157,2407.78,2406.95,8.6329,1.0053
1218.0,8.63304,610.322,2412.21,2411.38,8.6329,1.0053
1221.0,8.63944,610.487,2416.63,2415.8,8.63397,1.00637
1224.0,8.62887,610.652,2421.06,2420.22,8.62887,1.00127
1227.0,8.62138,610.817,2425.48,2424.64,8.62138,0.993776
1230.0,8.62264,610.982,2429.9,2429.05,8.6199,0.992296
1233.0,8.61651,611.147,2434.32,2433.46,8.61651,0.988906
1236.0,8.62191,611.312,2438.74,2437.87,8.61744,0.989836
1239.0,8.61399,611.477,2443.15,2442.28,8.61399,0.986386
1242.0,8.61343,611.642,2447.56,2446.69,8.61343,0.985826
1245.0,8.61427,611.807,2451.97,2451.09,8.61204,0.984436
1248.0,8.60368,611.972,2456.38,2455.49,8.60687,0.979266
1251.0,8.61407,612.137,2460.78,2459.89,8.61407,0.986466
1254.0,8.61328,612.302,2465.19,2464.29,8.61485,0.987246
1257.0,8.60476,612.467,2469.59,2468.68,8.60731,0.979706
1260.0,8.60331,612.632,2473.98,2473.07,8.6045,0.976896
1263.0,8.61244,612.797,2478.38,2477.46,8.61244,0.984836
1266.0,8.60014,612.962,2482.77,2481.85,8.60014,0.972536
1269.0,8.58584,613.127,2487.16,2486.23,8.58584,0.958236
1272.0,8.59973,613.292,2491.55,2490.61,8.59973,0.972126
1275.0,8.60526,613.457,2495.93,2494.99,8.60104,0.973436
1278.0,8.59615,613.622,2500.32,2499.37,8.59687,0.969266
1281.0,8.58404,613.787,2504.7,2503.75,8.58724,0.959636
1284.0,8.5987,613.952,2509.07,2508.12,8.58964,0.962036
1287.0,8.58836,614.117,2513.45,2512.49,8.58836,0.960756
1290.0,8.57157,614.282,2517.82,2516.86,8.57258,0.944976
1293.0,8.57513,614.447,2522.19,2521.22,8.57902,0.951416
1296.0,8.58381,614.612,2526.56,2525.59,8.5818,0.954196
1299.0,8.5839,614.777,2530.93,2529.95,8.5839,0.956296
1302.0,8.57623,614.942,2535.29,2534.3,8.57623,0.948626
1305.0,8.58215,615.107,2539.66,2538.66,8.57539,0.947786
1308.0,8.57775,615.272,2544.02,2543.01,8.5778,0.950196
1311.0,8.57627,615.437,2548.37,2547.37,8.57627,0.948666
1314.0,8.56449,615.602,2552.73,2551.72,8.56674,0.939136
1317.0,8.57467,615.767,2557.08,2556.06,8.56674,0.939136
1320.0,8.55709,615.932,2561.43,2560.41,8.55874,0.931136
1323.0,8.55602,616.097,2565.78,2564.75,8.55874,0.931136
1326.0,8.5723,616.262,2570.12,2569.09,8.56693,0.939326
1329.0,8.54754,616.427,2574.47,2573.43,8.54871,0.921106
1332.0,8.54807,616.592,2578.81,2577.76,8.54807,0.920466
1335.0,8.54519,616.757,2583.15,2582.09,8.54997,0.922366
1338.0,8.55421,616.922,2587.48,2586.42,8.55352,0.925916
1341.0,8.53996,617.087,2591.82,2590.75,8.55169,0.924086
1344.0,8.55454,617.252,2596.15,2595.08,8.54398,0.916376
1347.0,8.54151,617.417,2600.48,2599.4,8.54151,0.913906
1350.0,8.53835,617.582,2604.8,2603.72,8.53835,0.910746
1353.0,8.53503,617.747,2609.13,2608.04,8.53385,0.906246
1356.0,8.52441,617.912,2613.45,2612.36,8.53074,0.903136
1359.0,8.54093,618.077,2617.77,2616.67,8.52883,0.901226
1362.0,8.52967,618.242,2622.09,2620.99,8.52967,0.902066
1365.0,8.5274,618.407,2626.4,2625.3,8.52766,0.900056
1368.0,8.5245,618.572,2630.72,2629.6,8.52268,0.895076
1371.0,8.51492,618.737,2635.03,2633.91,8.51492,0.887316
1374.0,8.51093,618.902,2639.34,2638.21,8.51093,0.883326
1377.0,8.51852,619.067,2643.64,2642.51,8.51852,0.890916
1380.0,8.51728,619.232,2647.95,2646.81,8.51736,0.889756
1383.0,8.50179,619.397,2652.25,2651.11,8.5037,0.876096
1386.0,8.52419,619.562,2656.55,2655.4,8.51289,0.885286
1389.0,8.49895,619.727,2660.84,2659.69,8.49895,0.871346
1392.0,8.50188,619.892,2665.14,2663.98,8.50188,0.874276
1395.0,8.50369,620.057,2669.43,2668.27,8.50369,0.876086
1398.0,8.49197,620.222,2673.72,2672.55,8.49252,0.864916
1401.0,8.49093,620.387,2678.01,2676.84,8.49252,0.864916
1404.0,8.49035,620.551,2682.29,2681.12,8.49035,0.862746
1407.0,8.48852,620.716,2686.58,2685.39,8.48852,0.860916
1410.0,8.4907,620.881,2690.86,2689.67,8.4907,0.863096
1413.0,8.49375,621.046,2695.14,2693.94,8.49375,0.866146
1416.0,8.4819,621.211,2699.41,2698.21,8.4819,0.854296
1419.0,8.4966,621.376,2703.69,2702.48,8.4966,0.868996
1422.0,8.48252,621.541,2707.96,2706.75,8.48582,0.858216
1425.0,8.47857,621.706,2712.23,2711.01,8.48472,0.857116
1428.0,8.49033,621.871,2716.5,2715.27,8.48701,0.859406
1431.0,8.47846,622.036,2720.76,2719.53,8.47846,0.850856
1434.0,8.47655,622.201,2725.03,2723.79,8.47655,0.848946
1437.0,8.4782,622.366,2729.29,2728.05,8.47707,0.849466
1440.0,8.4705,622.531,2733.54,2732.3,8.47076,0.843156
1443.0,8.47301,622.696,2737.8,2736.55,8.47613,0.848526
1446.0,8.47401,622.861,2742.05,2740.8,8.47401,0.846406
1449.0,8.47512,623.026,2746.31,2745.04,8.47393,0.846326
1452.0,8.46989,623.191,2750.56,2749.29,8.46989,0.842286
1455.0,8.45972,623.356,2754.8,2753.53,8.46085,0.833246
1458.0,8.45336,623.521,2759.05,2757.77,8.45336,0.825756
1461.0,8.44933,623.686,2763.29,2762.01,8.44944,0.821836
1464.0,8.44872,623.851,2767.53,2766.24,8.44944,0.821836
1467.0,8.45231,624.016,2771.77,2770.47,8.45231,0.824706
1470.0,8.45061,624.181,2776,2774.7,8.45298,0.825376
1473.0,8.46925,624.346,2780.24,2778.93,8.45966,0.832056
1476.0,8.43641,624.511,2784.47,2783.16,8.44854,0.820936
1479.0,8.45762,624.676,2788.7,2787.38,8.4434,0.815796
1482.0,8.42954,624.841,2792.93,2791.6,8.44012,0.812516
1485.0,8.45327,625.006,2797.15,2795.82,8.44926,0.821656
1488.0,8.45034,625.171,2801.37,2800.04,8.44941,0.821806
1491.0,8.43404,625.336,2805.59,2804.25,8.44013,0.812526
1494.0,8.44265,625.501,2809.81,2808.47,8.44013,0.812526
1497.0,8.43891,625.666,2814.03,2812.68,8.43682,0.809216
1500.0,8.43398,625.831,2818.24,2816.89,8.43476,0.807156
1503.0,8.43761,625.996,2822.45,2821.09,8.43761,0.810006
1506.0,8.43948,626.161,2826.66,2825.3,8.43545,0.807846
1509.0,8.42628,626.326,2830.87,2829.5,8.42939,0.801786
1512.0,8.43464,626.491,2835.07,2833.7,8.42939,0.801786
1515.0,8.42864,626.656,2839.27,2837.89,8.42611,0.798506
1518.0,8.42335,626.821,2843.48,2842.09,8.42335,0.795746
1521.0,8.41862,626.986,2847.67,2846.28,8.42281,0.795206
1524.0,8.42885,627.151,2851.87,2850.47,8.42551,0.797906
1527.0,8.41907,627.316,2856.06,2854.66,8.42559,0.797986
1530.0,8.43407,627.481,2860.25,2858.85,8.42945,0.801846
1533.0,8.42225,627.646,2864.44,2863.03,8.42148,0.793876
1536.0,8.4085,627.811,2868.63,2867.21,8.41784,0.790236
1539.0,8.42399,627.976,2872.82,2871.39,8.41784,0.790236
1542.0,8.41703,628.141,2877,2875.57,8.41703,0.789426
1545.0,8.42162,628.306,2881.18,2879.74,8.41691,0.789306
1548.0,8.40995,628.471,2885.36,2883.92,8.40995,0.782346
1551.0,8.40215,628.636,2889.53,2888.09,8.40215,0.774546
1554.0,8.40822,628.801,2893.71,2892.26,8.40822,0.780616
1557.0,8.39905,628.966,2897.88,2896.42,8.40746,0.779856
1560.0,8.40095,629.131,2902.05,2900.59,8.40674,0.779136
1563.0,8.40919,629.296,2906.21,2904.75,8.40685,0.779246
1566.0,8.3962,629.461,2910.38,2908.91,8.39896,0.771356
1569.0,8.39628,629.626,2914.54,2913.06,8.39628,0.768676
1572.0,8.39525,629.791,2918.7,2917.22,8.39525,0.767646
1575.0,8.41503,629.956,2922.86,2921.37,8.40342,0.775816
1578.0,8.39084,630.121,2927.02,2925.52,8.39084,0.763236
1581.0,8.38367,630.286,2931.17,2929.67,8.38367,0.756066
1584.0,8.39394,630.451,2935.32,2933.82,8.39117,0.763566
1587.0,8.37847,630.616,2939.47,2937.96,8.37929,0.751686
1590.0,8.38186,630.781,2943.62,2942.11,8.38148,0.753876
1593.0,8.3897,630.946,2947.77,2946.25,8.3897,0.762096
1596.0,8.38375,631.111,2951.91,2950.38,8.39089,0.763286
1599.0,8.41444,631.276,2956.05,2954.52,8.40887,0.781266
1602.0,8.41462,631.441,2960.19,2958.65,8.41462,0.787016
1605.0,8.42554,631.606,2964.33,2962.79,8.42586,0.798256
1608.0,8.43851,631.771,2968.46,2966.92,8.43459,0.806986
1611.0,8.43217,631.936,2972.6,2971.04,8.43217,0.804566
1614.0,8.42132,632.101,2976.73,2975.17,8.42132,0.793716
1617.0,8.40252,632.266,2980.85,2979.29,8.40252,0.774916
1620.0,8.3738,632.431,2984.98,2983.41,8.3738,0.746196
1623.0,8.3588,632.596,2989.1,2987.53,8.3588,0.731196
1626.0,8.35535,632.761,2993.23,2991.65,8.35532,0.727716
1629.0,8.34932,632.926,2997.35,2995.76,8.35532,0.727716
1632.0,8.36585,633.091,3001.46,2999.87,8.36585,0.738246
1635.0,8.36953,633.256,3005.58,3003.98,8.36953,0.741926
1638.0,8.3612,633.421,3009.69,3008.09,8.3612,0.733596
1641.0,8.34636,633.585,3013.8,3012.2,8.34636,0.718756
1644.0,8.33085,633.75,3017.91,3016.3,8.33085,0.703246
1647.0,8.33132,633.915,3022.02,3020.4,8.32781,0.700206
1650.0,8.3078,634.08,3026.12,3024.5,8.31659,0.688986
1653.0,8.31783,634.245,3030.23,3028.6,8.31783,0.690226
1656.0,8.31044,634.41,3034.33,3032.69,8.31044,0.682836
1659.0,8.29863,634.575,3038.42,3036.79,8.30095,0.673346
1662.0,8.29944,634.74,3042.52,3040.88,8.29944,0.671836
1665.0,8.2968,634.905,3046.61,3044.97,8.29749,0.669886
1668.0,8.28809,635.07,3050.71,3049.05,8.28898,0.661376
1671.0,8.28978,635.235,3054.8,3053.14,8.28898,0.661376
1674.0,8.28956,635.4,3058.88,3057.22,8.28786,0.660256
1677.0,8.27951,635.565,3062.97,3061.3,8.28042,0.652816
1680.0,8.29252,635.73,3067.05,3065.38,8.29252,0.664916
1683.0,8.28631,635.895,3071.13,3069.45,8.28631,0.658706
1686.0,8.27433,636.06,3075.21,3073.53,8.27433,0.646726
1689.0,8.26561,636.225,3079.29,3077.6,8.26561,0.638006
1692.0,8.27028,636.39,3083.36,3081.67,8.26511,0.637506
1695.0,8.26862,636.555,3087.44,3085.74,8.26862,0.641016
1698.0,8.26293,636.72,3091.51,3089.8,8.27007,0.642466
1701.0,8.27066,636.885,3095.58,3093.87,8.27007,0.642466
1704.0,8.25632,637.05,3099.64,3097.93,8.25632,0.628716
1707.0,8.2528,637.215,3103.71,3101.99,8.2528,0.625196
1710.0,8.25551,637.38,3107.77,3106.04,8.25551,0.627906
1713.0,8.24746,637.545,3111.83,3110.1,8.24543,0.617826
1716.0,8.24555,637.71,3115.89,3114.15,8.24555,0.617946
1719.0,8.25858,637.875,3119.94,3118.2,8.2567,0.629096
1722.0,8.2555,638.04,3124,3122.25,8.25542,0.627816
1725.0,8.24533,638.205,3128.05,3126.3,8.24533,0.617726
1728.0,8.23403,638.37,3132.1,3130.34,8.23403,0.606426
1731.0,8.24089,638.535,3136.15,3134.38,8.23915,0.611546
1734.0,8.24108,638.7,3140.19,3138.42,8.24108,0.613476
1737.0,8.23951,638.865,3144.24,3142.46,8.24364,0.616036
1740.0,8.23552,639.03,3148.28,3146.5,8.23552,0.607916
1743.0,8.23542,639.195,3152.32,3150.53,8.23236,0.604756
1746.0,8.22136,639.36,3156.35,3154.56,8.22583,0.598226
1749.0,8.22061,639.525,3160.39,3158.59,8.22519,0.597586
1752.0,8.22647,639.69,3164.42,3162.62,8.2246,0.596996
1755.0,8.22542,639.855,3168.45,3166.65,8.2246,0.596996
1758.0,8.22226,640.02,3172.48,3170.67,8.22226,0.594656
1761.0,8.21561,640.185,3176.51,3174.69,8.21582,0.588216
1764.0,8.21573,640.35,3180.53,3178.71,8.21607,0.588466
1767.0,8.21454,640.515,3184.55,3182.73,8.21454,0.586936
1770.0,8.20096,640.68,3188.58,3186.74,8.20096,0.573356
1773.0,8.18933,640.845,3192.59,3190.76,8.19576,0.568156
1776.0,8.19063,641.01,3196.61,3194.77,8.19063,0.563026
1779.0,8.19313,641.175,3200.62,3198.78,8.19313,0.565526
1782.0,8.18767,641.34,3204.64,3202.78,8.18767,0.560066
1785.0,8.18647,641.505,3208.65,3206.79,8.18647,0.558866
1788.0,8.18915,641.67,3212.65,3210.79,8.18915,0.561546
1791.0,8.18529,641.835,3216.66,3214.79,8.18175,0.554146
1794.0,8.17829,642,3220.66,3218.79,8.1789,0.551296
1797.0,8.17948,642.165,3224.67,3222.79,8.1789,0.551296
1800.0,8.17743,642.33,3228.67,3226.78,8.17743,0.549826
1803.0,8.17919,642.495,3232.66,3230.78,8.17826,0.550656
1806.0,8.17435,642.66,3236.66,3234.77,8.17568,0.548076
1809.0,8.17739,642.825,3240.65,3238.76,8.17237,0.544766
1812.0,8.17285,642.99,3244.65,3242.74,8.17211,0.544506
1815.0,8.16854,643.155,3248.64,3246.73,8.16854,0.540936
1818.0,8.1483,643.32,3252.62,3250.71,8.15438,0.526776
1821.0,8.15685,643.485,3256.61,3254.69,8.15416,0.526556
1824.0,8.1465,643.65,3260.59,3258.67,8.15073,0.523126
1827.0,8.15807,643.815,3264.57,3262.64,8.15491,0.527306
1830.0,8.14794,643.98,3268.55,3266.62,8.14794,0.520336
1833.0,8.1538,644.145,3272.53,3270.59,8.15108,0.523476
1836.0,8.14046,644.31,3276.51,3274.56,8.14252,0.514916
1839.0,8.14405,644.475,3280.48,3278.53,8.14136,0.513756
1842.0,8.14737,644.64,3284.45,3282.5,8.14102,0.513416
1845.0,8.14008,644.805,3288.42,3286.46,8.13896,0.511356
1848.0,8.13587,644.97,3292.39,3290.42,8.13632,0.508716
1851.0,8.13954,645.135,3296.35,3294.38,8.1361,0.508496
1854.0,8.12999,645.3,3300.31,3298.34,8.12999,0.502386
1857.0,8.13286,645.465,3304.28,3302.3,8.12926,0.501656
1860.0,8.12313,645.63,3308.23,3306.25,8.12351,0.495906
1863.0,8.12256,645.795,3312.19,3310.2,8.12198,0.494376
1866.0,8.12236,645.96,3316.15,3314.15,8.12166,0.494056
1869.0,8.12428,646.125,3320.1,3318.1,8.12166,0.494056
1872.0,8.12372,646.29,3324.05,3322.05,8.12045,0.492846
1875.0,8.11861,646.455,3328,3325.99,8.11861,0.491006
1878.0,8.1153,646.619,3331.95,3329.93,8.11525,0.487646
1881.0,8.10927,646.784,3335.89,3333.87,8.11296,0.485356
1884.0,8.11548,646.949,3339.83,3337.81,8.11168,0.484076
1887.0,8.10761,647.114,3343.78,3341.74,8.11151,0.483906
1890.0,8.10507,647.279,3347.71,3345.68,8.10507,0.477466
1893.0,8.10098,647.444,3351.65,3349.61,8.10228,0.474676
1896.0,8.10019,647.609,3355.59,3353.54,8.10134,0.473736
1899.0,8.10228,647.774,3359.52,3357.47,8.10134,0.473736
1902.0,8.10347,647.939,3363.45,3361.39,8.10347,0.475866
1905.0,8.10947,648.104,3367.38,3365.32,8.10488,0.477276
1908.0,8.09451,648.269,3371.31,3369.24,8.09622,0.468616
1911.0,8.10253,648.434,3375.23,3373.16,8.10253,0.474926
1914.0,8.09708,648.599,3379.15,3377.08,8.09708,0.469476
1917.0,8.08684,648.764,3383.07,3380.99,8.08753,0.459926
1920.0,8.08469,648.929,3386.99,3384.91,8.08469,0.457086
1923.0,8.0828,649.094,3390.91,3388.82,8.08334,0.455736
1926.0,8.09831,649.259,3394.83,3392.73,8.0931,0.465496
1929.0,8.0893,649.424,3398.74,3396.64,8.0893,0.461696
1932.0,8.06909,649.589,3402.65,3400.54,8.07509,0.447486
1935.0,8.07886,649.754,3406.56,3404.45,8.07674,0.449136
1938.0,8.08234,649.919,3410.47,3408.35,8.08234,0.454736
1941.0,8.07898,650.084,3414.37,3412.25,8.0777,0.450096
1944.0,8.07051,650.249,3418.27,3416.15,8.07381,0.446206
1947.0,8.07538,650.414,3422.17,3420.04,8.07381,0.446206
1950.0,8.07204,650.579,3426.07,3423.94,8.07301,0.445406
1953.0,8.07073,650.744,3429.97,3427.83,8.07362,0.446016
1956.0,8.07236,650.909,3433.87,3431.72,8.07236,0.444756
1959.0,8.05666,651.074,3437.76,3435.61,8.05666,0.429056
1962.0,8.06313,651.239,3441.65,3439.49,8.05492,0.427316
1965.0,8.05434,651.404,3445.54,3443.38,8.05434,0.426736
1968.0,8.04915,651.569,3449.43,3447.26,8.05568,0.428076
1971.0,8.06172,651.734,3453.31,3451.14,8.05736,0.429756
1974.0,8.05745,651.899,3457.2,3455.02,8.05316,0.425556
1977.0,8.05034,652.064,3461.08,3458.89,8.05034,0.422736
1980.0,8.04315,652.229,3464.96,3462.77,8.04479,0.417186
1983.0,8.04428,652.394,3468.83,3466.64,8.04479,0.417186
1986.0,8.05374,652.559,3472.71,3470.51,8.0502,0.422596
1989.0,8.04042,652.724,3476.58,3474.38,8.04161,0.414006
1992.0,8.03856,652.889,3480.45,3478.25,8.04179,0.414186
1995.0,8.04504,653.054,3484.32,3482.11,8.04179,0.414186
1998.0,8.03087,653.219,3488.19,3485.97,8.0329,0.405296
2001.0,8.03589,653.384,3492.06,3489.83,8.03589,0.408286
2004.0,8.0277,653.549,3495.92,3493.69,8.02902,0.401416
2007.0,8.02733,653.714,3499.78,3497.55,8.02902,0.401416
2010.0,8.03209,653.879,3503.64,3501.4,8.03185,0.404246
2013.0,8.0276,654.044,3507.5,3505.26,8.02721,0.399606
2016.0,8.02374,654.209,3511.36,3509.11,8.02374,0.396136
2019.0,8.02466,654.374,3515.21,3512.96,8.02466,0.397056
2022.0,8.02289,654.539,3519.06,3516.8,8.02289,0.395286
2025.0,8.02399,654.704,3522.91,3520.65,8.02473,0.397126
2028.0,8.02457,654.869,3526.76,3524.49,8.02623,0.398626
2031.0,8.01567,655.034,3530.61,3528.33,8.01567,0.388066
2034.0,8.01605,655.199,3534.45,3532.17,8.01334,0.385736
2037.0,8.00275,655.364,3538.29,3536.01,8.00813,0.380526
2040.0,8.01283,655.529,3542.13,3539.85,8.00813,0.380526
2043.0,8.00632,655.694,3545.97,3543.68,8.00633,0.378726
2046.0,8.00749,655.859,3549.81,3547.51,8.00595,0.378346
2047.0,8.00348,655.914,3551.09,3548.79,8.00348,0.375876