File: data/processed/processed_data/2024-09-03/2024-09-03_glycinepowder_n_n_y_solid_1000_0_10.csv
Pixels #,Intensity (a.u.),Wavelength (nm),Raman shift (cm-1),Raman shift (cm-1) adjusted,Filtered Intensity (a.u.),Baselined Filtered Intensity (a.u.)
0.0,7.56219,543.337,392.223,393.994,7.56196,-0.0639041
3.0,7.5623,543.502,397.81,399.573,7.5623,-0.0635645
6.0,7.56285,543.667,403.394,405.15,7.5629,-0.0629654
9.0,7.56337,543.832,408.974,410.723,7.56325,-0.0626169
12.0,7.56191,543.997,414.551,416.293,7.56249,-0.063379
15.0,7.56234,544.162,420.125,421.859,7.5625,-0.0633716
18.0,7.56385,544.327,425.695,427.422,7.56299,-0.0628847
21.0,7.55921,544.492,431.261,432.981,7.56121,-0.0646684
24.0,7.56344,544.657,436.825,438.537,7.56299,-0.0628927
27.0,7.56351,544.822,442.385,444.09,7.56307,-0.0628176
30.0,7.56319,544.987,447.941,449.64,7.56319,-0.0627029
33.0,7.56521,545.152,453.494,455.186,7.56514,-0.0607589
36.0,7.56392,545.317,459.044,460.728,7.56392,-0.0619854
39.0,7.56345,545.482,464.591,466.268,7.56352,-0.0623924
42.0,7.56251,545.647,470.134,471.804,7.56373,-0.06219
45.0,7.5645,545.812,475.674,477.337,7.5645,-0.0614281
48.0,7.56643,545.977,481.21,482.866,7.56582,-0.0601168
51.0,7.56556,546.142,486.743,488.392,7.56664,-0.0593059
54.0,7.56995,546.307,492.273,493.915,7.56995,-0.0560057
57.0,7.5768,546.472,497.8,499.434,7.5768,-0.0491659
60.0,7.58506,546.637,503.323,504.95,7.58506,-0.0409165
63.0,7.58943,546.802,508.843,510.463,7.58943,-0.0365575
66.0,7.59798,546.967,514.359,515.972,7.59798,-0.0280188
69.0,7.6043,547.132,519.872,521.478,7.6043,-0.0217104
72.0,7.61077,547.297,525.382,526.981,7.61077,-0.0152522
75.0,7.61546,547.462,530.888,532.48,7.61546,-0.0105741
78.0,7.6214,547.627,536.392,537.976,7.62148,-0.0045661
81.0,7.62976,547.792,541.891,543.469,7.62976,0.00370186
84.0,7.63427,547.957,547.388,548.958,7.63427,0.00819985
87.0,7.63967,548.122,552.881,554.444,7.63962,0.0135379
90.0,7.64043,548.287,558.371,559.927,7.63964,0.0135461
93.0,7.63979,548.452,563.858,565.407,7.63979,0.0136844
96.0,7.6425,548.617,569.341,570.883,7.64085,0.0147328
99.0,7.64059,548.782,574.821,576.356,7.64082,0.0146914
102.0,7.64166,548.947,580.298,581.826,7.64166,0.0155201
105.0,7.64483,549.112,585.771,587.292,7.64326,0.0171089
108.0,7.63978,549.277,591.241,592.755,7.64033,0.0141679
111.0,7.64358,549.442,596.708,598.215,7.64358,0.017407
114.0,7.64462,549.607,602.172,603.671,7.64462,0.0184363
117.0,7.64237,549.772,607.632,609.125,7.64372,0.0175257
120.0,7.64695,549.937,613.089,614.575,7.6457,0.0194953
123.0,7.6422,550.102,618.543,620.021,7.643,0.0167851
126.0,7.64448,550.267,623.993,625.465,7.64327,0.017045
129.0,7.64329,550.432,629.44,630.905,7.64329,0.0170551
132.0,7.64108,550.597,634.884,636.342,7.64108,0.0148353
135.0,7.64042,550.762,640.325,641.776,7.64042,0.0141656
138.0,7.64411,550.927,645.762,647.206,7.64411,0.0178461
141.0,7.64481,551.092,651.197,652.633,7.64494,0.0186668
144.0,7.64719,551.257,656.627,658.057,7.64714,0.0208576
147.0,7.64662,551.422,662.055,663.478,7.64757,0.0212785
150.0,7.6514,551.587,667.48,668.895,7.65026,0.0239597
153.0,7.65152,551.752,672.901,674.309,7.65152,0.0252111
156.0,7.65255,551.917,678.319,679.72,7.6531,0.0267827
159.0,7.65688,552.082,683.733,685.128,7.65688,0.0305546
162.0,7.66212,552.247,689.145,690.533,7.66212,0.0357867
165.0,7.66469,552.412,694.553,695.934,7.66473,0.0383891
168.0,7.66826,552.577,699.958,701.332,7.66826,0.0419119
171.0,7.67522,552.742,705.36,706.727,7.67522,0.0488651
174.0,7.68206,552.907,710.758,712.118,7.68206,0.0556987
177.0,7.68586,553.072,716.154,717.507,7.68586,0.0594927
180.0,7.6935,553.237,721.546,722.892,7.6935,0.0671273
183.0,7.70042,553.402,726.935,728.274,7.70042,0.0740426
186.0,7.71088,553.567,732.32,733.652,7.71088,0.0844984
189.0,7.72447,553.732,737.703,739.028,7.72447,0.0980851
192.0,7.73708,553.897,743.082,744.4,7.73708,0.110693
195.0,7.74861,554.062,748.458,749.769,7.74861,0.122221
198.0,7.76303,554.227,753.831,755.135,7.76303,0.136641
201.0,7.77899,554.392,759.201,760.498,7.77899,0.152601
204.0,7.79779,554.557,764.567,765.858,7.79779,0.171401
207.0,7.8187,554.722,769.93,771.214,7.8187,0.192311
210.0,7.83966,554.887,775.29,776.567,7.83966,0.213271
213.0,7.86777,555.052,780.647,781.917,7.86777,0.241381
216.0,7.89324,555.217,786.001,787.264,7.89324,0.266851
219.0,7.92053,555.382,791.352,792.608,7.92053,0.294141
222.0,7.95141,555.546,796.699,797.948,7.95141,0.325021
225.0,7.98461,555.711,802.043,803.285,7.98461,0.358221
228.0,8.02015,555.876,807.384,808.62,8.02015,0.393761
231.0,8.05579,556.041,812.722,813.951,8.05579,0.429401
234.0,8.09727,556.206,818.057,819.278,8.09727,0.470881
237.0,8.13444,556.371,823.388,824.603,8.13444,0.508051
240.0,8.17049,556.536,828.716,829.924,8.17049,0.544101
243.0,8.20884,556.701,834.042,835.243,8.20884,0.582451
246.0,8.24497,556.866,839.364,840.558,8.24497,0.618581
249.0,8.28562,557.031,844.682,845.87,8.28562,0.659231
252.0,8.31432,557.196,849.998,851.179,8.31432,0.687931
255.0,8.34708,557.361,855.311,856.485,8.34708,0.720691
258.0,8.37153,557.526,860.62,861.787,8.37153,0.745141
261.0,8.39852,557.691,865.927,867.087,8.39852,0.772131
264.0,8.42724,557.856,871.23,872.383,8.42724,0.800851
267.0,8.44936,558.021,876.53,877.676,8.44936,0.822971
270.0,8.48811,558.186,881.827,882.966,8.48811,0.861721
273.0,8.52723,558.351,887.12,888.253,8.52723,0.900841
276.0,8.53136,558.516,892.411,893.537,8.53136,0.904971
279.0,8.53088,558.681,897.698,898.818,8.53088,0.904491
282.0,8.51332,558.846,902.983,904.095,8.51332,0.886931
285.0,8.50671,559.011,908.264,909.37,8.50671,0.880321
288.0,8.5052,559.176,913.542,914.641,8.50538,0.878991
291.0,8.51104,559.341,918.817,919.909,8.51104,0.884651
294.0,8.51363,559.506,924.089,925.174,8.51363,0.887241
297.0,8.51392,559.671,929.358,930.436,8.51316,0.886771
300.0,8.51687,559.836,934.624,935.695,8.51592,0.889531
303.0,8.51228,560.001,939.886,940.951,8.51312,0.886731
306.0,8.51671,560.166,945.146,946.204,8.51479,0.888401
309.0,8.5153,560.331,950.402,951.454,8.5153,0.888911
312.0,8.51697,560.496,955.656,956.7,8.51501,0.888621
315.0,8.51395,560.661,960.906,961.944,8.51403,0.887641
318.0,8.5146,560.826,966.153,967.184,8.51364,0.887251
321.0,8.51597,560.991,971.397,972.421,8.51597,0.889581
324.0,8.52006,561.156,976.638,977.655,8.52137,0.894981
327.0,8.5252,561.321,981.876,982.887,8.5252,0.898811
330.0,8.52933,561.486,987.111,988.115,8.52721,0.900821
333.0,8.52949,561.651,992.342,993.34,8.52949,0.903101
336.0,8.53418,561.816,997.571,998.562,8.53423,0.907841
339.0,8.53687,561.981,1002.8,1003.78,8.53643,0.910041
342.0,8.54334,562.146,1008.02,1009,8.54334,0.916951
345.0,8.55021,562.311,1013.24,1014.21,8.55021,0.923821
348.0,8.55644,562.476,1018.45,1019.42,8.55644,0.930051
351.0,8.56655,562.641,1023.67,1024.63,8.56655,0.940161
354.0,8.57729,562.806,1028.88,1029.83,8.57729,0.950901
357.0,8.58372,562.971,1034.09,1035.03,8.58362,0.957231
360.0,8.58315,563.136,1039.29,1040.23,8.58315,0.956761
363.0,8.58285,563.301,1044.49,1045.42,8.58279,0.956401
366.0,8.58313,563.466,1049.69,1050.61,8.58313,0.956741
369.0,8.58623,563.631,1054.88,1055.8,8.58686,0.960471
372.0,8.58938,563.796,1060.08,1060.99,8.58733,0.960941
375.0,8.58605,563.961,1065.27,1066.17,8.58787,0.961481
378.0,8.58902,564.126,1070.45,1071.35,8.58922,0.962831
381.0,8.59497,564.291,1075.63,1076.52,8.59436,0.967971
384.0,8.59402,564.456,1080.81,1081.7,8.59402,0.967631
387.0,8.59728,564.621,1085.99,1086.87,8.59718,0.970791
390.0,8.60015,564.786,1091.16,1092.03,8.60015,0.973761
393.0,8.59989,564.951,1096.34,1097.2,8.60091,0.974521
396.0,8.59948,565.116,1101.5,1102.36,8.60099,0.974601
399.0,8.60742,565.281,1106.67,1107.52,8.60742,0.981031
402.0,8.60524,565.446,1111.83,1112.67,8.60529,0.978901
405.0,8.60468,565.611,1116.99,1117.82,8.60266,0.976271
408.0,8.60231,565.776,1122.14,1122.97,8.60243,0.976041
411.0,8.60871,565.941,1127.3,1128.12,8.60871,0.982321
414.0,8.6148,566.106,1132.45,1133.26,8.6122,0.985811
417.0,8.60947,566.271,1137.59,1138.4,8.61052,0.984131
420.0,8.61336,566.436,1142.74,1143.54,8.61449,0.988101
423.0,8.61427,566.601,1147.88,1148.67,8.61427,0.987881
426.0,8.61161,566.766,1153.02,1153.81,8.61267,0.986281
429.0,8.61622,566.931,1158.15,1158.93,8.61601,0.989621
432.0,8.62205,567.096,1163.28,1164.06,8.62205,0.995661
435.0,8.61811,567.261,1168.41,1169.18,8.61848,0.992091
438.0,8.61713,567.426,1173.54,1174.3,8.61913,0.992741
441.0,8.62497,567.591,1178.66,1179.42,8.62497,0.998581
444.0,8.62663,567.756,1183.78,1184.53,8.62688,1.00049
447.0,8.63195,567.921,1188.9,1189.64,8.63053,1.00414
450.0,8.6303,568.086,1194.01,1194.75,8.6301,1.00371
453.0,8.6347,568.251,1199.12,1199.85,8.6347,1.00831
456.0,8.63656,568.416,1204.23,1204.95,8.63755,1.01116
459.0,8.64137,568.58,1209.33,1210.05,8.64032,1.01393
462.0,8.64069,568.745,1214.44,1215.15,8.64069,1.0143
465.0,8.64281,568.91,1219.53,1220.24,8.64281,1.01642
468.0,8.6423,569.075,1224.63,1225.33,8.64347,1.01708
471.0,8.64168,569.24,1229.72,1230.42,8.64347,1.01708
474.0,8.64766,569.405,1234.81,1235.5,8.64766,1.02127
477.0,8.6514,569.57,1239.9,1240.58,8.64867,1.02228
480.0,8.64868,569.735,1244.99,1245.66,8.64868,1.02229
483.0,8.65102,569.9,1250.07,1250.73,8.64967,1.02328
486.0,8.64989,570.065,1255.14,1255.8,8.65024,1.02385
489.0,8.65225,570.23,1260.22,1260.87,8.65339,1.027
492.0,8.65487,570.395,1265.29,1265.94,8.65485,1.02846
495.0,8.65645,570.56,1270.36,1271,8.65654,1.03015
498.0,8.66271,570.725,1275.43,1276.06,8.66119,1.0348
501.0,8.65953,570.89,1280.49,1281.12,8.65953,1.03314
504.0,8.66282,571.055,1285.55,1286.17,8.66282,1.03643
507.0,8.66881,571.22,1290.61,1291.22,8.66881,1.04242
510.0,8.66877,571.385,1295.67,1296.27,8.67063,1.04424
513.0,8.68317,571.55,1300.72,1301.32,8.68317,1.05678
516.0,8.69022,571.715,1305.77,1306.36,8.69022,1.06383
519.0,8.71657,571.88,1310.81,1311.4,8.71657,1.09018
522.0,8.74263,572.045,1315.86,1316.44,8.74263,1.11624
525.0,8.76179,572.21,1320.9,1321.47,8.75872,1.13233
528.0,8.75173,572.375,1325.94,1326.5,8.75173,1.12534
531.0,8.72693,572.54,1330.97,1331.53,8.72693,1.10054
534.0,8.70376,572.705,1336,1336.56,8.70376,1.07737
537.0,8.69062,572.87,1341.03,1341.58,8.69062,1.06423
540.0,8.68968,573.035,1346.06,1346.6,8.6897,1.06331
543.0,8.6931,573.2,1351.08,1351.61,8.6931,1.06671
546.0,8.69237,573.365,1356.1,1356.63,8.69113,1.06474
549.0,8.69179,573.53,1361.12,1361.64,8.69179,1.0654
552.0,8.69609,573.695,1366.13,1366.65,8.69435,1.06796
555.0,8.69475,573.86,1371.14,1371.65,8.69475,1.06836
558.0,8.70322,574.025,1376.15,1376.65,8.70322,1.07683
561.0,8.70738,574.19,1381.16,1381.65,8.70738,1.08099
564.0,8.71249,574.355,1386.16,1386.65,8.71249,1.0861
567.0,8.71916,574.52,1391.16,1391.64,8.71916,1.09277
570.0,8.72535,574.685,1396.16,1396.63,8.72535,1.09896
573.0,8.73616,574.85,1401.15,1401.62,8.73616,1.10977
576.0,8.74594,575.015,1406.14,1406.61,8.74594,1.11955
579.0,8.74676,575.18,1411.13,1411.59,8.74676,1.12037
582.0,8.73737,575.345,1416.12,1416.57,8.73742,1.11103
585.0,8.72885,575.51,1421.1,1421.54,8.72885,1.10246
588.0,8.72421,575.675,1426.08,1426.52,8.72541,1.09902
591.0,8.734,575.84,1431.06,1431.49,8.72958,1.10319
594.0,8.73071,576.005,1436.03,1436.46,8.73073,1.10434
597.0,8.73388,576.17,1441,1441.42,8.73237,1.10598
600.0,8.73389,576.335,1445.97,1446.38,8.73389,1.1075
603.0,8.73389,576.5,1450.94,1451.34,8.73389,1.1075
606.0,8.73106,576.665,1455.9,1456.3,8.73106,1.10467
609.0,8.73133,576.83,1460.86,1461.25,8.7299,1.10351
612.0,8.72273,576.995,1465.82,1466.2,8.72369,1.0973
615.0,8.72498,577.16,1470.77,1471.15,8.72498,1.09859
618.0,8.73216,577.325,1475.72,1476.1,8.73216,1.10577
621.0,8.7278,577.49,1480.67,1481.04,8.7278,1.10141
624.0,8.72739,577.655,1485.62,1485.98,8.7274,1.10101
627.0,8.73281,577.82,1490.56,1490.91,8.73263,1.10624
630.0,8.73784,577.985,1495.5,1495.85,8.73784,1.11145
633.0,8.74097,578.15,1500.44,1500.78,8.74097,1.11458
636.0,8.73838,578.315,1505.37,1505.71,8.73838,1.11199
639.0,8.74833,578.48,1510.3,1510.63,8.74603,1.11964
642.0,8.7431,578.645,1515.23,1515.55,8.74381,1.11742
645.0,8.74512,578.81,1520.16,1520.47,8.74512,1.11873
648.0,8.74303,578.975,1525.08,1525.39,8.7431,1.11671
651.0,8.74347,579.14,1530,1530.31,8.74472,1.11833
654.0,8.75012,579.305,1534.92,1535.22,8.75012,1.12373
657.0,8.7474,579.47,1539.83,1540.13,8.74904,1.12265
660.0,8.75352,579.635,1544.75,1545.03,8.75202,1.12563
663.0,8.75318,579.8,1549.65,1549.93,8.75318,1.12679
666.0,8.75434,579.965,1554.56,1554.83,8.75508,1.12869
669.0,8.75622,580.13,1559.47,1559.73,8.75622,1.12983
672.0,8.76395,580.295,1564.37,1564.63,8.76255,1.13616
675.0,8.76026,580.46,1569.26,1569.52,8.76111,1.13472
678.0,8.76227,580.625,1574.16,1574.41,8.76111,1.13472
681.0,8.7557,580.79,1579.05,1579.29,8.7557,1.12931
684.0,8.75267,580.955,1583.94,1584.18,8.75288,1.12649
687.0,8.75387,581.12,1588.83,1589.06,8.75387,1.12748
690.0,8.7492,581.285,1593.71,1593.94,8.75061,1.12422
693.0,8.74964,581.45,1598.59,1598.81,8.74987,1.12348
696.0,8.75133,581.614,1603.47,1603.68,8.75133,1.12494
699.0,8.75036,581.779,1608.35,1608.55,8.75206,1.12567
702.0,8.75242,581.944,1613.22,1613.42,8.75142,1.12503
705.0,8.75241,582.109,1618.09,1618.28,8.75241,1.12602
708.0,8.75548,582.274,1622.96,1623.15,8.75597,1.12958
711.0,8.75769,582.439,1627.83,1628,8.75752,1.13113
714.0,8.74978,582.604,1632.69,1632.86,8.75186,1.12547
717.0,8.75166,582.769,1637.55,1637.71,8.75166,1.12527
720.0,8.75218,582.934,1642.4,1642.56,8.75082,1.12443
723.0,8.75142,583.099,1647.26,1647.41,8.75138,1.12499
726.0,8.75402,583.264,1652.11,1652.26,8.75402,1.12763
729.0,8.75409,583.429,1656.96,1657.1,8.75605,1.12966
732.0,8.75575,583.594,1661.8,1661.94,8.75682,1.13043
735.0,8.76145,583.759,1666.65,1666.77,8.76145,1.13506
738.0,8.75787,583.924,1671.49,1671.61,8.75787,1.13148
741.0,8.75735,584.089,1676.32,1676.44,8.75639,1.13
744.0,8.75495,584.254,1681.16,1681.27,8.7554,1.12901
747.0,8.75414,584.419,1685.99,1686.09,8.75422,1.12783
750.0,8.75107,584.584,1690.82,1690.92,8.75385,1.12746
753.0,8.75708,584.749,1695.65,1695.74,8.75708,1.13069
756.0,8.75825,584.914,1700.47,1700.55,8.75825,1.13186
759.0,8.7555,585.079,1705.29,1705.37,8.7555,1.12911
762.0,8.75233,585.244,1710.11,1710.18,8.75476,1.12837
765.0,8.75523,585.409,1714.92,1714.99,8.75523,1.12884
768.0,8.75491,585.574,1719.74,1719.8,8.75648,1.13009
771.0,8.75735,585.739,1724.55,1724.6,8.75735,1.13096
774.0,8.75877,585.904,1729.35,1729.4,8.75837,1.13198
777.0,8.75871,586.069,1734.16,1734.2,8.75837,1.13198
780.0,8.74839,586.234,1738.96,1739,8.75367,1.12728
783.0,8.75955,586.399,1743.76,1743.79,8.7587,1.13231
786.0,8.75742,586.564,1748.56,1748.58,8.75742,1.13103
789.0,8.7574,586.729,1753.35,1753.37,8.7578,1.13141
792.0,8.75482,586.894,1758.14,1758.15,8.75614,1.12975
795.0,8.76084,587.059,1762.93,1762.94,8.75967,1.13328
798.0,8.75592,587.224,1767.72,1767.72,8.75752,1.13113
801.0,8.75457,587.389,1772.5,1772.49,8.75664,1.13025
804.0,8.75716,587.554,1777.28,1777.27,8.75664,1.13025
807.0,8.75517,587.719,1782.06,1782.04,8.75545,1.12906
810.0,8.75664,587.884,1786.83,1786.81,8.75585,1.12946
813.0,8.75733,588.049,1791.61,1791.57,8.75733,1.13094
816.0,8.75266,588.214,1796.38,1796.34,8.75266,1.12627
819.0,8.75233,588.379,1801.14,1801.1,8.75233,1.12594
822.0,8.75375,588.544,1805.91,1805.86,8.75349,1.1271
825.0,8.75639,588.709,1810.67,1810.61,8.75593,1.12954
828.0,8.75918,588.874,1815.43,1815.37,8.75888,1.13249
831.0,8.75762,589.039,1820.19,1820.12,8.758,1.13161
834.0,8.75872,589.204,1824.94,1824.86,8.75824,1.13185
837.0,8.75954,589.369,1829.69,1829.61,8.75835,1.13196
840.0,8.76045,589.534,1834.44,1834.35,8.76045,1.13406
843.0,8.76302,589.699,1839.18,1839.09,8.76266,1.13627
846.0,8.75921,589.864,1843.93,1843.83,8.75935,1.13296
849.0,8.75792,590.029,1848.67,1848.56,8.76054,1.13415
852.0,8.76354,590.194,1853.41,1853.29,8.76354,1.13715
855.0,8.76126,590.359,1858.14,1858.02,8.76135,1.13496
858.0,8.76243,590.524,1862.87,1862.75,8.76243,1.13604
861.0,8.76418,590.689,1867.6,1867.47,8.76377,1.13738
864.0,8.76541,590.854,1872.33,1872.2,8.76616,1.13977
867.0,8.77043,591.019,1877.06,1876.91,8.76777,1.14138
870.0,8.76299,591.184,1881.78,1881.63,8.76516,1.13877
873.0,8.76483,591.349,1886.5,1886.34,8.76163,1.13524
876.0,8.757,591.514,1891.21,1891.05,8.75933,1.13294
879.0,8.76042,591.679,1895.93,1895.76,8.76042,1.13403
882.0,8.76573,591.844,1900.64,1900.47,8.76339,1.137
885.0,8.76075,592.009,1905.35,1905.17,8.76122,1.13483
888.0,8.75967,592.174,1910.05,1909.87,8.75967,1.13328
891.0,8.75984,592.339,1914.76,1914.57,8.7596,1.13321
894.0,8.75961,592.504,1919.46,1919.26,8.7596,1.13321
897.0,8.75638,592.669,1924.16,1923.96,8.75597,1.12958
900.0,8.75059,592.834,1928.85,1928.64,8.75273,1.12634
903.0,8.75663,592.999,1933.55,1933.33,8.75663,1.13024
906.0,8.75767,593.164,1938.24,1938.02,8.75767,1.13128
909.0,8.75486,593.329,1942.93,1942.7,8.75486,1.12847
912.0,8.75213,593.494,1947.61,1947.38,8.75285,1.12646
915.0,8.75351,593.659,1952.29,1952.05,8.75294,1.12655
918.0,8.74555,593.824,1956.97,1956.73,8.74599,1.1196
921.0,8.75034,593.989,1961.65,1961.4,8.75032,1.12393
924.0,8.75013,594.154,1966.33,1966.07,8.75032,1.12393
927.0,8.74947,594.319,1971,1970.73,8.7482,1.12181
930.0,8.7447,594.484,1975.67,1975.4,8.7447,1.11831
933.0,8.74822,594.648,1980.33,1980.06,8.74458,1.11819
936.0,8.74098,594.813,1985,1984.72,8.7448,1.11841
939.0,8.74874,594.978,1989.66,1989.37,8.7448,1.11841
942.0,8.74023,595.143,1994.32,1994.03,8.74023,1.11384
945.0,8.73609,595.308,1998.98,1998.68,8.73704,1.11065
948.0,8.7365,595.473,2003.63,2003.33,8.73775,1.11136
951.0,8.73741,595.638,2008.28,2007.97,8.73884,1.11245
954.0,8.73836,595.803,2012.93,2012.62,8.73836,1.11197
957.0,8.72891,595.968,2017.58,2017.26,8.73006,1.10367
960.0,8.73183,596.133,2022.22,2021.89,8.73002,1.10363
963.0,8.73297,596.298,2026.86,2026.53,8.72946,1.10307
966.0,8.72502,596.463,2031.5,2031.16,8.7273,1.10091
969.0,8.72986,596.628,2036.14,2035.79,8.72969,1.1033
972.0,8.73205,596.793,2040.77,2040.42,8.72969,1.1033
975.0,8.72271,596.958,2045.4,2045.05,8.72434,1.09795
978.0,8.72333,597.123,2050.03,2049.67,8.72333,1.09694
981.0,8.72131,597.288,2054.66,2054.29,8.72131,1.09492
984.0,8.71676,597.453,2059.28,2058.91,8.71676,1.09037
987.0,8.71531,597.618,2063.9,2063.52,8.71506,1.08867
990.0,8.70762,597.783,2068.52,2068.13,8.70889,1.0825
993.0,8.71081,597.948,2073.14,2072.74,8.71081,1.08442
996.0,8.71427,598.113,2077.75,2077.35,8.71374,1.08735
999.0,8.71258,598.278,2082.36,2081.95,8.71205,1.08566
1002.0,8.71095,598.443,2086.97,2086.56,8.71095,1.08456
1005.0,8.70964,598.608,2091.57,2091.16,8.70964,1.08325
1008.0,8.70637,598.773,2096.18,2095.75,8.70634,1.07995
1011.0,8.698,598.938,2100.78,2100.35,8.7006,1.07421
1014.0,8.70054,599.103,2105.38,2104.94,8.7006,1.07421
1017.0,8.70156,599.268,2109.97,2109.53,8.70156,1.07517
1020.0,8.70231,599.433,2114.56,2114.12,8.70009,1.0737
1023.0,8.69925,599.598,2119.15,2118.7,8.70009,1.0737
1026.0,8.69484,599.763,2123.74,2123.28,8.69669,1.0703
1029.0,8.69334,599.928,2128.33,2127.86,8.69334,1.06695
1032.0,8.69593,600.093,2132.91,2132.44,8.69331,1.06692
1035.0,8.68868,600.258,2137.49,2137.01,8.69035,1.06396
1038.0,8.68825,600.423,2142.07,2141.59,8.69035,1.06396
1041.0,8.69362,600.588,2146.64,2146.15,8.69058,1.06419
1044.0,8.68584,600.753,2151.22,2150.72,8.68748,1.06109
1047.0,8.68699,600.918,2155.79,2155.29,8.68566,1.05927
1050.0,8.68475,601.083,2160.35,2159.85,8.68528,1.05889
1053.0,8.68305,601.248,2164.92,2164.41,8.68305,1.05666
1056.0,8.67754,601.413,2169.48,2168.96,8.67901,1.05262
1059.0,8.68043,601.578,2174.04,2173.52,8.67874,1.05235
1062.0,8.67445,601.743,2178.6,2178.07,8.67486,1.04847
1065.0,8.67269,601.908,2183.16,2182.62,8.67269,1.0463
1068.0,8.66942,602.073,2187.71,2187.17,8.67022,1.04383
1071.0,8.67459,602.238,2192.26,2191.71,8.67459,1.0482
1074.0,8.67438,602.403,2196.81,2196.25,8.67438,1.04799
1077.0,8.66941,602.568,2201.35,2200.79,8.66941,1.04302
1080.0,8.66486,602.733,2205.89,2205.33,8.66703,1.04064
1083.0,8.67115,602.898,2210.43,2209.86,8.66886,1.04247
1086.0,8.67017,603.063,2214.97,2214.4,8.67017,1.04378
1089.0,8.66976,603.228,2219.51,2218.92,8.66976,1.04337
1092.0,8.66459,603.393,2224.04,2223.45,8.66501,1.03862
1095.0,8.66452,603.558,2228.57,2227.98,8.66526,1.03887
1098.0,8.66628,603.723,2233.1,2232.5,8.66605,1.03966
1101.0,8.66314,603.888,2237.62,2237.02,8.66314,1.03675
1104.0,8.66244,604.053,2242.15,2241.54,8.66212,1.03573
1107.0,8.65696,604.218,2246.67,2246.05,8.65738,1.03099
1110.0,8.65824,604.383,2251.19,2250.56,8.65759,1.0312
1113.0,8.66691,604.548,2255.7,2255.07,8.66044,1.03405
1116.0,8.65568,604.713,2260.21,2259.58,8.65776,1.03137
1119.0,8.65642,604.878,2264.72,2264.08,8.657,1.03061
1122.0,8.65611,605.043,2269.23,2268.59,8.65611,1.02972
1125.0,8.65019,605.208,2273.74,2273.09,8.65019,1.0238
1128.0,8.64734,605.373,2278.24,2277.58,8.64755,1.02116
1131.0,8.649,605.538,2282.74,2282.08,8.649,1.02261
1134.0,8.64791,605.703,2287.24,2286.57,8.64858,1.02219
1137.0,8.64618,605.868,2291.74,2291.06,8.64671,1.02032
1140.0,8.64478,606.033,2296.23,2295.55,8.64478,1.01839
1143.0,8.64425,606.198,2300.72,2300.03,8.64323,1.01684
1146.0,8.64434,606.363,2305.21,2304.52,8.64315,1.01676
1149.0,8.64333,606.528,2309.7,2309,8.64218,1.01579
1152.0,8.63923,606.693,2314.18,2313.47,8.64184,1.01545
1155.0,8.64285,606.858,2318.66,2317.95,8.64037,1.01398
1158.0,8.63763,607.023,2323.14,2322.42,8.63666,1.01027
1161.0,8.635,607.188,2327.62,2326.89,8.63593,1.00954
1164.0,8.63116,607.353,2332.09,2331.36,8.63428,1.00789
1167.0,8.63538,607.518,2336.56,2335.83,8.63428,1.00789
1170.0,8.63749,607.682,2341.03,2340.29,8.63731,1.01092
1173.0,8.6351,607.847,2345.5,2344.75,8.6351,1.00871
1176.0,8.63085,608.012,2349.96,2349.21,8.63109,1.0047
1179.0,8.63156,608.177,2354.42,2353.67,8.63156,1.00517
1182.0,8.63167,608.342,2358.88,2358.12,8.63162,1.00523
1185.0,8.62684,608.507,2363.34,2362.57,8.62726,1.00087
1188.0,8.62327,608.672,2367.79,2367.02,8.62367,0.997281
1191.0,8.62456,608.837,2372.25,2371.47,8.62367,0.997281
1194.0,8.6212,609.002,2376.7,2375.91,8.62163,0.995241
1197.0,8.61977,609.167,2381.14,2380.35,8.61977,0.993381
1200.0,8.61851,609.332,2385.59,2384.79,8.61851,0.992121
1203.0,8.61229,609.497,2390.03,2389.23,8.61404,0.987651
1206.0,8.6145,609.662,2394.47,2393.66,8.61458,0.988191
1209.0,8.61509,609.827,2398.91,2398.09,8.61501,0.988621
1212.0,8.60855,609.992,2403.34,2402.52,8.60907,0.982681
1215.0,8.61263,610.157,2407.78,2406.95,8.61059,0.984201
1218.0,8.60576,610.322,2412.21,2411.38,8.60891,0.982521
1221.0,8.60686,610.487,2416.63,2415.8,8.60686,0.980471
1224.0,8.60306,610.652,2421.06,2420.22,8.60325,0.976861
1227.0,8.60118,610.817,2425.48,2424.64,8.60308,0.976691
1230.0,8.60441,610.982,2429.9,2429.05,8.60437,0.977981
1233.0,8.60532,611.147,2434.32,2433.46,8.60437,0.977981
1236.0,8.60049,611.312,2438.74,2437.87,8.60049,0.974101
1239.0,8.59541,611.477,2443.15,2442.28,8.59662,0.970231
1242.0,8.59318,611.642,2447.56,2446.69,8.5942,0.967811
1245.0,8.59046,611.807,2451.97,2451.09,8.5928,0.966411
1248.0,8.59867,611.972,2456.38,2455.49,8.5944,0.968011
1251.0,8.59095,612.137,2460.78,2459.89,8.58986,0.963471
1254.0,8.5887,612.302,2465.19,2464.29,8.58923,0.962841
1257.0,8.58785,612.467,2469.59,2468.68,8.58785,0.961461
1260.0,8.58681,612.632,2473.98,2473.07,8.58681,0.960421
1263.0,8.58249,612.797,2478.38,2477.46,8.58325,0.956861
1266.0,8.58413,612.962,2482.77,2481.85,8.58325,0.956861
1269.0,8.58056,613.127,2487.16,2486.23,8.58056,0.954171
1272.0,8.57609,613.292,2491.55,2490.61,8.57834,0.951951
1275.0,8.57486,613.457,2495.93,2494.99,8.576,0.949611
1278.0,8.57365,613.622,2500.32,2499.37,8.57342,0.947031
1281.0,8.56797,613.787,2504.7,2503.75,8.56932,0.942931
1284.0,8.57097,613.952,2509.07,2508.12,8.56932,0.942931
1287.0,8.56531,614.117,2513.45,2512.49,8.56646,0.940071
1290.0,8.56472,614.282,2517.82,2516.86,8.56526,0.938871
1293.0,8.5653,614.447,2522.19,2521.22,8.56452,0.938131
1296.0,8.56583,614.612,2526.56,2525.59,8.56433,0.937941
1299.0,8.55794,614.777,2530.93,2529.95,8.55794,0.931551
1302.0,8.55046,614.942,2535.29,2534.3,8.55351,0.927121
1305.0,8.55552,615.107,2539.66,2538.66,8.55309,0.926701
1308.0,8.54983,615.272,2544.02,2543.01,8.5522,0.925811
1311.0,8.54721,615.437,2548.37,2547.37,8.54721,0.920821
1314.0,8.54295,615.602,2552.73,2551.72,8.54253,0.916141
1317.0,8.54167,615.767,2557.08,2556.06,8.54167,0.915281
1320.0,8.53995,615.932,2561.43,2560.41,8.54018,0.913791
1323.0,8.53927,616.097,2565.78,2564.75,8.53927,0.912881
1326.0,8.53668,616.262,2570.12,2569.09,8.53668,0.910291
1329.0,8.53256,616.427,2574.47,2573.43,8.53256,0.906171
1332.0,8.5317,616.592,2578.81,2577.76,8.53027,0.903881
1335.0,8.52554,616.757,2583.15,2582.09,8.52682,0.900431
1338.0,8.53173,616.922,2587.48,2586.42,8.52836,0.901971
1341.0,8.52772,617.087,2591.82,2590.75,8.52772,0.901331
1344.0,8.52753,617.252,2596.15,2595.08,8.52483,0.898441
1347.0,8.52025,617.417,2600.48,2599.4,8.52025,0.893861
1350.0,8.52238,617.582,2604.8,2603.72,8.51959,0.893201
1353.0,8.51779,617.747,2609.13,2608.04,8.51955,0.893161
1356.0,8.51827,617.912,2613.45,2612.36,8.51827,0.891881
1359.0,8.51383,618.077,2617.77,2616.67,8.51327,0.886881
1362.0,8.50829,618.242,2622.09,2620.99,8.50829,0.881901
1365.0,8.50548,618.407,2626.4,2625.3,8.50548,0.879091
1368.0,8.50335,618.572,2630.72,2629.6,8.50463,0.878241
1371.0,8.50145,618.737,2635.03,2633.91,8.50145,0.875061
1374.0,8.49339,618.902,2639.34,2638.21,8.49494,0.868551
1377.0,8.49704,619.067,2643.64,2642.51,8.49494,0.868551
1380.0,8.49507,619.232,2647.95,2646.81,8.49507,0.868681
1383.0,8.49482,619.397,2652.25,2651.11,8.49274,0.866351
1386.0,8.48832,619.562,2656.55,2655.4,8.48832,0.861931
1389.0,8.49111,619.727,2660.84,2659.69,8.49097,0.864581
1392.0,8.48844,619.892,2665.14,2663.98,8.48844,0.862051
1395.0,8.48198,620.057,2669.43,2668.27,8.48315,0.856761
1398.0,8.48417,620.222,2673.72,2672.55,8.48417,0.857781
1401.0,8.47538,620.387,2678.01,2676.84,8.47837,0.851981
1404.0,8.47887,620.551,2682.29,2681.12,8.47836,0.851971
1407.0,8.47427,620.716,2686.58,2685.39,8.47594,0.849551
1410.0,8.47481,620.881,2690.86,2689.67,8.47525,0.848861
1413.0,8.47285,621.046,2695.14,2693.94,8.47285,0.846461
1416.0,8.4712,621.211,2699.41,2698.21,8.46999,0.843601
1419.0,8.4677,621.376,2703.69,2702.48,8.4677,0.841311
1422.0,8.46372,621.541,2707.96,2706.75,8.46372,0.837331
1425.0,8.46611,621.706,2712.23,2711.01,8.46611,0.839721
1428.0,8.46353,621.871,2716.5,2715.27,8.46353,0.837141
1431.0,8.46125,622.036,2720.76,2719.53,8.46082,0.834431
1434.0,8.46105,622.201,2725.03,2723.79,8.46082,0.834431
1437.0,8.46211,622.366,2729.29,2728.05,8.46074,0.834351
1440.0,8.45617,622.531,2733.54,2732.3,8.45802,0.831631
1443.0,8.45448,622.696,2737.8,2736.55,8.45568,0.829291
1446.0,8.45552,622.861,2742.05,2740.8,8.45552,0.829131
1449.0,8.45083,623.026,2746.31,2745.04,8.45083,0.824441
1452.0,8.44357,623.191,2750.56,2749.29,8.44575,0.819361
1455.0,8.44637,623.356,2754.8,2753.53,8.44575,0.819361
1458.0,8.44212,623.521,2759.05,2757.77,8.44335,0.816961
1461.0,8.44416,623.686,2763.29,2762.01,8.44335,0.816961
1464.0,8.44393,623.851,2767.53,2766.24,8.44298,0.816591
1467.0,8.43458,624.016,2771.77,2770.47,8.43712,0.810731
1470.0,8.43791,624.181,2776,2774.7,8.43742,0.811031
1473.0,8.43726,624.346,2780.24,2778.93,8.43704,0.810651
1476.0,8.43327,624.511,2784.47,2783.16,8.43327,0.806881
1479.0,8.43347,624.676,2788.7,2787.38,8.43283,0.806441
1482.0,8.4258,624.841,2792.93,2791.6,8.42862,0.802231
1485.0,8.43346,625.006,2797.15,2795.82,8.42862,0.802231
1488.0,8.42452,625.171,2801.37,2800.04,8.42846,0.802071
1491.0,8.42944,625.336,2805.59,2804.25,8.42921,0.802821
1494.0,8.42357,625.501,2809.81,2808.47,8.42414,0.797751
1497.0,8.42401,625.666,2814.03,2812.68,8.42348,0.797091
1500.0,8.42145,625.831,2818.24,2816.89,8.42145,0.795061
1503.0,8.41622,625.996,2822.45,2821.09,8.41756,0.791171
1506.0,8.41894,626.161,2826.66,2825.3,8.41894,0.792551
1509.0,8.41669,626.326,2830.87,2829.5,8.41669,0.790301
1512.0,8.41595,626.491,2835.07,2833.7,8.41542,0.789031
1515.0,8.41409,626.656,2839.27,2837.89,8.41409,0.787701
1518.0,8.41026,626.821,2843.48,2842.09,8.41035,0.783961
1521.0,8.40916,626.986,2847.67,2846.28,8.40956,0.783171
1524.0,8.40598,627.151,2851.87,2850.47,8.40598,0.779591
1527.0,8.40661,627.316,2856.06,2854.66,8.40558,0.779191
1530.0,8.40638,627.481,2860.25,2858.85,8.40476,0.778371
1533.0,8.40521,627.646,2864.44,2863.03,8.40339,0.777001
1536.0,8.4004,627.811,2868.63,2867.21,8.40058,0.774191
1539.0,8.40006,627.976,2872.82,2871.39,8.4004,0.774011
1542.0,8.39914,628.141,2877,2875.57,8.39989,0.773501
1545.0,8.40277,628.306,2881.18,2879.74,8.40125,0.774861
1548.0,8.39319,628.471,2885.36,2883.92,8.39319,0.766801
1551.0,8.38756,628.636,2889.53,2888.09,8.39079,0.764401
1554.0,8.3933,628.801,2893.71,2892.26,8.39211,0.765721
1557.0,8.3927,628.966,2897.88,2896.42,8.3918,0.765411
1560.0,8.38904,629.131,2902.05,2900.59,8.38818,0.761791
1563.0,8.38033,629.296,2906.21,2904.75,8.38045,0.754061
1566.0,8.38408,629.461,2910.38,2908.91,8.38045,0.754061
1569.0,8.37519,629.626,2914.54,2913.06,8.37893,0.752541
1572.0,8.3831,629.791,2918.7,2917.22,8.3831,0.756711
1575.0,8.38005,629.956,2922.86,2921.37,8.38005,0.753661
1578.0,8.37466,630.121,2927.02,2925.52,8.37466,0.748271
1581.0,8.37542,630.286,2931.17,2929.67,8.37548,0.749091
1584.0,8.37196,630.451,2935.32,2933.82,8.37425,0.747861
1587.0,8.37225,630.616,2939.47,2937.96,8.37373,0.747341
1590.0,8.37412,630.781,2943.62,2942.11,8.37361,0.747221
1593.0,8.37476,630.946,2947.77,2946.25,8.37361,0.747221
1596.0,8.37379,631.111,2951.91,2950.38,8.37424,0.747851
1599.0,8.38362,631.276,2956.05,2954.52,8.38362,0.757231
1602.0,8.39787,631.441,2960.19,2958.65,8.39787,0.771481
1605.0,8.41893,631.606,2964.33,2962.79,8.41893,0.792541
1608.0,8.42575,631.771,2968.46,2966.92,8.42575,0.799361
1611.0,8.42295,631.936,2972.6,2971.04,8.42295,0.796561
1614.0,8.40416,632.101,2976.73,2975.17,8.40416,0.777771
1617.0,8.38142,632.266,2980.85,2979.29,8.38142,0.755031
1620.0,8.36195,632.431,2984.98,2983.41,8.36195,0.735561
1623.0,8.34801,632.596,2989.1,2987.53,8.34801,0.721621
1626.0,8.3432,632.761,2993.23,2991.65,8.34487,0.718481
1629.0,8.34971,632.926,2997.35,2995.76,8.34685,0.720461
1632.0,8.34978,633.091,3001.46,2999.87,8.34978,0.723391
1635.0,8.35098,633.256,3005.58,3003.98,8.35098,0.724591
1638.0,8.34613,633.421,3009.69,3008.09,8.34612,0.719731
1641.0,8.32983,633.585,3013.8,3012.2,8.32983,0.703441
1644.0,8.32256,633.75,3017.91,3016.3,8.32256,0.696171
1647.0,8.30674,633.915,3022.02,3020.4,8.30674,0.680351
1650.0,8.29916,634.08,3026.12,3024.5,8.29916,0.672771
1653.0,8.29621,634.245,3030.23,3028.6,8.29621,0.669821
1656.0,8.29303,634.41,3034.33,3032.69,8.29335,0.666961
1659.0,8.29229,634.575,3038.42,3036.79,8.29229,0.665901
1662.0,8.29123,634.74,3042.52,3040.88,8.29043,0.664041
1665.0,8.28372,634.905,3046.61,3044.97,8.28512,0.658731
1668.0,8.28213,635.07,3050.71,3049.05,8.28213,0.655741
1671.0,8.27921,635.235,3054.8,3053.14,8.27901,0.652621
1674.0,8.27624,635.4,3058.88,3057.22,8.27696,0.650571
1677.0,8.27357,635.565,3062.97,3061.3,8.27258,0.646191
1680.0,8.27113,635.73,3067.05,3065.38,8.27113,0.644741
1683.0,8.26818,635.895,3071.13,3069.45,8.26818,0.641791
1686.0,8.2602,636.06,3075.21,3073.53,8.2602,0.633811
1689.0,8.25947,636.225,3079.29,3077.6,8.25883,0.632441
1692.0,8.2573,636.39,3083.36,3081.67,8.2573,0.630911
1695.0,8.25406,636.555,3087.44,3085.74,8.25418,0.627791
1698.0,8.25538,636.72,3091.51,3089.8,8.25425,0.627861
1701.0,8.2516,636.885,3095.58,3093.87,8.2516,0.625211
1704.0,8.24704,637.05,3099.64,3097.93,8.24704,0.620651
1707.0,8.24605,637.215,3103.71,3101.99,8.24567,0.619281
1710.0,8.24219,637.38,3107.77,3106.04,8.24316,0.616771
1713.0,8.24094,637.545,3111.83,3110.1,8.24094,0.614551
1716.0,8.23938,637.71,3115.89,3114.15,8.24018,0.613791
1719.0,8.2417,637.875,3119.94,3118.2,8.24004,0.613651
1722.0,8.23845,638.04,3124,3122.25,8.23845,0.612061
1725.0,8.23592,638.205,3128.05,3126.3,8.23611,0.609721
1728.0,8.2351,638.37,3132.1,3130.34,8.23444,0.608051
1731.0,8.22872,638.535,3136.15,3134.38,8.23223,0.605841
1734.0,8.23514,638.7,3140.19,3138.42,8.23171,0.605321
1737.0,8.23105,638.865,3144.24,3142.46,8.23089,0.604501
1740.0,8.22587,639.03,3148.28,3146.5,8.22587,0.599481
1743.0,8.21866,639.195,3152.32,3150.53,8.22014,0.593751
1746.0,8.2182,639.36,3156.35,3154.56,8.21888,0.592491
1749.0,8.21902,639.525,3160.39,3158.59,8.21802,0.591631
1752.0,8.21343,639.69,3164.42,3162.62,8.21343,0.587041
1755.0,8.20843,639.855,3168.45,3166.65,8.20843,0.582041
1758.0,8.20578,640.02,3172.48,3170.67,8.20591,0.579521
1761.0,8.20323,640.185,3176.51,3174.69,8.20323,0.576841
1764.0,8.19842,640.35,3180.53,3178.71,8.19929,0.572901
1767.0,8.19831,640.515,3184.55,3182.73,8.19831,0.571921
1770.0,8.19038,640.68,3188.58,3186.74,8.19038,0.563991
1773.0,8.18796,640.845,3192.59,3190.76,8.18806,0.561671
1776.0,8.18759,641.01,3196.61,3194.77,8.18759,0.561201
1779.0,8.18596,641.175,3200.62,3198.78,8.18596,0.559571
1782.0,8.18237,641.34,3204.64,3202.78,8.18362,0.557231
1785.0,8.17971,641.505,3208.65,3206.79,8.17971,0.553321
1788.0,8.17518,641.67,3212.65,3210.79,8.17518,0.548791
1791.0,8.17093,641.835,3216.66,3214.79,8.17093,0.544541
1794.0,8.17144,642,3220.66,3218.79,8.17038,0.543991
1797.0,8.16761,642.165,3224.67,3222.79,8.16815,0.541761
1800.0,8.16253,642.33,3228.67,3226.78,8.16292,0.536531
1803.0,8.1656,642.495,3232.66,3230.78,8.16284,0.536451
1806.0,8.16036,642.66,3236.66,3234.77,8.16163,0.535241
1809.0,8.15711,642.825,3240.65,3238.76,8.15711,0.530721
1812.0,8.15681,642.99,3244.65,3242.74,8.1561,0.529711
1815.0,8.15622,643.155,3248.64,3246.73,8.1561,0.529711
1818.0,8.15012,643.32,3252.62,3250.71,8.15012,0.523731
1821.0,8.15141,643.485,3256.61,3254.69,8.15071,0.524321
1824.0,8.1454,643.65,3260.59,3258.67,8.1454,0.519011
1827.0,8.14402,643.815,3264.57,3262.64,8.1432,0.516811
1830.0,8.14158,643.98,3268.55,3266.62,8.1425,0.516111
1833.0,8.14554,644.145,3272.53,3270.59,8.1425,0.516111
1836.0,8.13681,644.31,3276.51,3274.56,8.13709,0.510701
1839.0,8.13776,644.475,3280.48,3278.53,8.13671,0.510321
1842.0,8.13273,644.64,3284.45,3282.5,8.13274,0.506351
1845.0,8.1317,644.805,3288.42,3286.46,8.1317,0.505311
1848.0,8.12819,644.97,3292.39,3290.42,8.12819,0.501801
1851.0,8.1263,645.135,3296.35,3294.38,8.12603,0.499641
1854.0,8.12303,645.3,3300.31,3298.34,8.12417,0.497781
1857.0,8.12366,645.465,3304.28,3302.3,8.12201,0.495621
1860.0,8.11845,645.63,3308.23,3306.25,8.11845,0.492061
1863.0,8.1173,645.795,3312.19,3310.2,8.11602,0.489631
1866.0,8.11357,645.96,3316.15,3314.15,8.11357,0.487181
1869.0,8.11181,646.125,3320.1,3318.1,8.11181,0.485421
1872.0,8.11092,646.29,3324.05,3322.05,8.1114,0.485011
1875.0,8.11147,646.455,3328,3325.99,8.11106,0.484671
1878.0,8.10612,646.619,3331.95,3329.93,8.10612,0.479731
1881.0,8.10534,646.784,3335.89,3333.87,8.1046,0.478211
1884.0,8.10265,646.949,3339.83,3337.81,8.1046,0.478211
1887.0,8.10366,647.114,3343.78,3341.74,8.10249,0.476101
1890.0,8.10264,647.279,3347.71,3345.68,8.10104,0.474651
1893.0,8.09988,647.444,3351.65,3349.61,8.09988,0.473491
1896.0,8.09574,647.609,3355.59,3353.54,8.09586,0.469471
1899.0,8.09556,647.774,3359.52,3357.47,8.09556,0.469171
1902.0,8.09397,647.939,3363.45,3361.39,8.09351,0.467121
1905.0,8.09304,648.104,3367.38,3365.32,8.09272,0.466331
1908.0,8.09015,648.269,3371.31,3369.24,8.09015,0.463761
1911.0,8.08538,648.434,3375.23,3373.16,8.08734,0.460951
1914.0,8.08869,648.599,3379.15,3377.08,8.08734,0.460951
1917.0,8.08569,648.764,3383.07,3380.99,8.08553,0.459141
1920.0,8.08648,648.929,3386.99,3384.91,8.08559,0.459201
1923.0,8.08161,649.094,3390.91,3388.82,8.08161,0.455221
1926.0,8.07911,649.259,3394.83,3392.73,8.07874,0.452351
1929.0,8.07652,649.424,3398.74,3396.64,8.07779,0.451401
1932.0,8.0779,649.589,3402.65,3400.54,8.07779,0.451401
1935.0,8.0757,649.754,3406.56,3404.45,8.07522,0.448831
1938.0,8.06838,649.919,3410.47,3408.35,8.06859,0.442201
1941.0,8.06898,650.084,3414.37,3412.25,8.06859,0.442201
1944.0,8.06685,650.249,3418.27,3416.15,8.06685,0.440461
1947.0,8.06064,650.414,3422.17,3420.04,8.06064,0.434251
1950.0,8.06052,650.579,3426.07,3423.94,8.06052,0.434131
1953.0,8.05966,650.744,3429.97,3427.83,8.06041,0.434021
1956.0,8.05854,650.909,3433.87,3431.72,8.05854,0.432151
1959.0,8.05587,651.074,3437.76,3435.61,8.05478,0.428391
1962.0,8.05162,651.239,3441.65,3439.49,8.05162,0.425231
1965.0,8.05269,651.404,3445.54,3443.38,8.05106,0.424671
1968.0,8.04759,651.569,3449.43,3447.26,8.04819,0.421801
1971.0,8.04769,651.734,3453.31,3451.14,8.04658,0.420191
1974.0,8.04256,651.899,3457.2,3455.02,8.04256,0.416171
1977.0,8.04289,652.064,3461.08,3458.89,8.04229,0.415901
1980.0,8.04099,652.229,3464.96,3462.77,8.04194,0.415551
1983.0,8.04072,652.394,3468.83,3466.64,8.04072,0.414331
1986.0,8.03844,652.559,3472.71,3470.51,8.03768,0.411291
1989.0,8.03427,652.724,3476.58,3474.38,8.03427,0.407881
1992.0,8.03395,652.889,3480.45,3478.25,8.03395,0.407561
1995.0,8.03527,653.054,3484.32,3482.11,8.03333,0.406941
1998.0,8.02972,653.219,3488.19,3485.97,8.02972,0.403331
2001.0,8.02554,653.384,3492.06,3489.83,8.02572,0.399331
2004.0,8.02612,653.549,3495.92,3493.69,8.02572,0.399331
2007.0,8.02412,653.714,3499.78,3497.55,8.0244,0.398011
2010.0,8.0246,653.879,3503.64,3501.4,8.0244,0.398011
2013.0,8.01979,654.044,3507.5,3505.26,8.01967,0.393281
2016.0,8.01495,654.209,3511.36,3509.11,8.01617,0.389781
2019.0,8.02081,654.374,3515.21,3512.96,8.01842,0.392031
2022.0,8.0154,654.539,3519.06,3516.8,8.0163,0.389911
2025.0,8.01737,654.704,3522.91,3520.65,8.0163,0.389911
2028.0,8.01067,654.869,3526.76,3524.49,8.01067,0.384281
2031.0,8.01,655.034,3530.61,3528.33,8.00877,0.382381
2034.0,8.00703,655.199,3534.45,3532.17,8.00703,0.380641
2037.0,8.00401,655.364,3538.29,3536.01,8.00524,0.378851
2040.0,8.00908,655.529,3542.13,3539.85,8.00854,0.382151
2043.0,8.00567,655.694,3545.97,3543.68,8.00567,0.379281
2046.0,8.00085,655.859,3549.81,3547.51,8.00085,0.374461
2047.0,7.99923,655.914,3551.09,3548.79,7.99923,0.372841