File: data/processed/processed_data/2024-09-03/2024-09-03_glycinepowder_n_y_y_solid_1000_0_100.csv
Pixels #,Intensity (a.u.),Wavelength (nm),Raman shift (cm-1),Raman shift (cm-1) adjusted,Filtered Intensity (a.u.),Baselined Filtered Intensity (a.u.)
0.0,0.000695676,543.337,392.223,393.994,0.000340236,0.000338333
3.0,0.000695802,543.502,397.81,399.573,0.000695802,0.000693899
6.0,0.000743931,543.667,403.394,405.15,0.000809954,0.000808051
9.0,0.00185302,543.832,408.974,410.723,0.00168,0.0016781
12.0,0.000700266,543.997,414.551,416.293,0.000663774,0.000661871
15.0,0.000239366,544.162,420.125,421.859,0.000663774,0.00066187
18.0,0.00211377,544.327,425.695,427.422,0.00098803,0.000986126
21.0,0.0,544.492,431.261,432.981,0.00021446,0.000212556
24.0,0.00170857,544.657,436.825,438.537,0.00169111,0.00168921
27.0,0.00108683,544.822,442.385,444.09,0.00108683,0.00108493
30.0,0.00125795,544.987,447.941,449.64,0.00125795,0.00125605
33.0,0.00228139,545.152,453.494,455.186,0.00228139,0.00227949
36.0,0.00195424,545.317,459.044,460.728,0.00140401,0.00140211
39.0,0.000450882,545.482,464.591,466.268,0.000906314,0.00090441
42.0,0.0,545.647,470.134,471.804,4.9702e-05,4.77985e-05
45.0,0.000765526,545.812,475.674,477.337,0.000513956,0.000512053
48.0,0.00144003,545.977,481.21,482.866,0.000953634,0.000951731
51.0,0.000104306,546.142,486.743,488.392,0.000530861,0.000528958
54.0,0.00138281,546.307,492.273,493.915,0.00138281,0.00138091
57.0,0.00414792,546.472,497.8,499.434,0.00414792,0.00414602
60.0,0.00696999,546.637,503.323,504.95,0.00673116,0.00672926
63.0,0.00700341,546.802,508.843,510.463,0.00700341,0.00700151
66.0,0.0081529,546.967,514.359,515.972,0.00838366,0.00838176
69.0,0.00871123,547.132,519.872,521.478,0.0087567,0.0087548
72.0,0.00956422,547.297,525.382,526.981,0.00885109,0.00884919
75.0,0.00683662,547.462,530.888,532.48,0.00791236,0.00791046
78.0,0.00952067,547.627,536.392,537.976,0.00952067,0.00951877
81.0,0.0130363,547.792,541.891,543.469,0.0115325,0.0115306
84.0,0.0108277,547.957,547.388,548.958,0.0117707,0.0117688
87.0,0.010877,548.122,552.881,554.444,0.010877,0.0108751
90.0,0.00846681,548.287,558.371,559.927,0.00777033,0.00776843
93.0,0.00559547,548.452,563.858,565.407,0.00559547,0.00559357
96.0,0.00513091,548.617,569.341,570.883,0.00462312,0.00462122
99.0,0.00285919,548.782,574.821,576.356,0.00285919,0.00285729
102.0,0.000931141,548.947,580.298,581.826,0.00152547,0.00152357
105.0,0.00463441,549.112,585.771,587.292,0.00339122,0.00338932
108.0,0.000789096,549.277,591.241,592.755,0.000789096,0.000787196
111.0,0.00155041,549.442,596.708,598.215,0.00155041,0.00154851
114.0,0.00218392,549.607,602.172,603.671,0.00226995,0.00226805
117.0,0.000860367,549.772,607.632,609.125,0.00161338,0.00161148
120.0,0.00352489,549.937,613.089,614.575,0.00213669,0.00213479
123.0,0.00022868,550.102,618.543,620.021,0.00104673,0.00104483
126.0,0.00223884,550.267,623.993,625.465,0.00202446,0.00202256
129.0,0.00293527,550.432,629.44,630.905,0.00222697,0.00222507
132.0,0.0,550.597,634.884,636.342,0.000230564,0.000228666
135.0,0.0,550.762,640.325,641.776,4.19623e-06,2.29794e-06
138.0,0.00119109,550.927,645.762,647.206,0.00119109,0.00118919
141.0,0.00212248,551.092,651.197,652.633,0.00167754,0.00167564
144.0,0.00173478,551.257,656.627,658.057,0.00173478,0.00173288
147.0,0.00184462,551.422,662.055,663.478,0.00199898,0.00199708
150.0,0.00256702,551.587,667.48,668.895,0.00187441,0.00187251
153.0,0.000923133,551.752,672.901,674.309,0.000923133,0.000921236
156.0,0.000334399,551.917,678.319,679.72,0.000993424,0.000991527
159.0,0.00244719,552.082,683.733,685.128,0.00211664,0.00211474
162.0,0.00283654,552.247,689.145,690.533,0.00283654,0.00283464
165.0,0.00356136,552.412,694.553,695.934,0.00363075,0.00362885
168.0,0.00353452,552.577,699.958,701.332,0.00383915,0.00383725
171.0,0.00497326,552.742,705.36,706.727,0.00471061,0.00470871
174.0,0.0044538,552.907,710.758,712.118,0.00495364,0.00495174
177.0,0.00506212,553.072,716.154,717.507,0.00495364,0.00495174
180.0,0.00519207,553.237,721.546,722.892,0.00503186,0.00502996
183.0,0.0057771,553.402,726.935,728.274,0.0057771,0.0057752
186.0,0.00835802,553.567,732.32,733.652,0.00835802,0.00835612
189.0,0.0106935,553.732,737.703,739.028,0.010039,0.0100371
192.0,0.0121365,553.897,743.082,744.4,0.0115211,0.0115192
195.0,0.00996075,554.062,748.458,749.769,0.0113746,0.0113727
198.0,0.0121364,554.227,753.831,755.135,0.0117101,0.0117082
201.0,0.0135648,554.392,759.201,760.498,0.0135648,0.0135629
204.0,0.0171315,554.557,764.567,765.858,0.0171315,0.0171296
207.0,0.0188963,554.722,769.93,771.214,0.018804,0.0188021
210.0,0.0199585,554.887,775.29,776.567,0.0199585,0.0199566
213.0,0.023934,555.052,780.647,781.917,0.023934,0.0239321
216.0,0.0273986,555.217,786.001,787.264,0.0273986,0.0273967
219.0,0.0283525,555.382,791.352,792.608,0.0283525,0.0283506
222.0,0.0317813,555.546,796.699,797.948,0.0317813,0.0317794
225.0,0.0362872,555.711,802.043,803.285,0.0362872,0.0362853
228.0,0.0378073,555.876,807.384,808.62,0.0379576,0.0379557
231.0,0.0421223,556.041,812.722,813.951,0.0421223,0.0421204
234.0,0.047236,556.206,818.057,819.278,0.0465455,0.0465436
237.0,0.0475826,556.371,823.388,824.603,0.0475826,0.0475807
240.0,0.0519434,556.536,828.716,829.924,0.0519434,0.0519415
243.0,0.054754,556.701,834.042,835.243,0.0537389,0.053737
246.0,0.055017,556.866,839.364,840.558,0.055017,0.0550151
249.0,0.057176,557.031,844.682,845.87,0.0570786,0.0570767
252.0,0.0545031,557.196,849.998,851.179,0.0545031,0.0545012
255.0,0.051584,557.361,855.311,856.485,0.051584,0.0515821
258.0,0.0469384,557.526,860.62,861.787,0.0469384,0.0469365
261.0,0.0429048,557.691,865.927,867.087,0.0429048,0.0429029
264.0,0.0391518,557.856,871.23,872.383,0.0391518,0.0391499
267.0,0.0386697,558.021,876.53,877.676,0.0386697,0.0386678
270.0,0.0499705,558.186,881.827,882.966,0.0499705,0.0499686
273.0,0.0653766,558.351,887.12,888.253,0.0653766,0.0653747
276.0,0.0603713,558.516,892.411,893.537,0.0603713,0.0603694
279.0,0.0443879,558.681,897.698,898.818,0.0443879,0.044386
282.0,0.0199722,558.846,902.983,904.095,0.0199722,0.0199703
285.0,0.00684069,559.011,908.264,909.37,0.00684069,0.0068388
288.0,0.000982398,559.176,913.542,914.641,0.00189777,0.00189588
291.0,0.00452551,559.341,918.817,919.909,0.00452551,0.00452362
294.0,0.00492271,559.506,924.089,925.174,0.00492271,0.00492082
297.0,0.00314002,559.671,929.358,930.436,0.00363561,0.00363372
300.0,0.00455581,559.836,934.624,935.695,0.00421392,0.00421203
303.0,0.00103704,560.001,939.886,940.951,0.00210752,0.00210563
306.0,0.00126646,560.166,945.146,946.204,0.00126646,0.00126457
309.0,0.0007806,560.331,950.402,951.454,0.00131848,0.00131659
312.0,0.00463865,560.496,955.656,956.7,0.00215574,0.00215385
315.0,0.0,560.661,960.906,961.944,0.000988729,0.00098684
318.0,0.00150992,560.826,966.153,967.184,0.000778787,0.000776898
321.0,0.000397116,560.991,971.397,972.421,0.000405451,0.000403562
324.0,0.00249247,561.156,976.638,977.655,0.00186951,0.00186762
327.0,0.00176513,561.321,981.876,982.887,0.00176513,0.00176324
330.0,0.00307123,561.486,987.111,988.115,0.00266265,0.00266076
333.0,0.00112635,561.651,992.342,993.34,0.00224991,0.00224802
336.0,0.00340812,561.816,997.571,998.562,0.00340812,0.00340623
339.0,0.00519596,561.981,1002.8,1003.78,0.00415666,0.00415477
342.0,0.00265966,562.146,1008.02,1009,0.00352104,0.00351915
345.0,0.00273219,562.311,1013.24,1014.21,0.00370525,0.00370336
348.0,0.00657717,562.476,1018.45,1019.42,0.00644214,0.00644025
351.0,0.00947996,562.641,1023.67,1024.63,0.00947996,0.00947807
354.0,0.0139506,562.806,1028.88,1029.83,0.0139506,0.0139487
357.0,0.0162577,562.971,1034.09,1035.03,0.0154731,0.0154712
360.0,0.013647,563.136,1039.29,1040.23,0.013647,0.0136451
363.0,0.00776453,563.301,1044.49,1045.42,0.00776453,0.00776264
366.0,0.00426442,563.466,1049.69,1050.61,0.00496051,0.00495862
369.0,0.00410228,563.631,1054.88,1055.8,0.00410228,0.00410039
372.0,0.00402308,563.796,1060.08,1060.99,0.00244086,0.00243897
375.0,0.000491318,563.961,1065.27,1066.17,0.00182275,0.00182086
378.0,0.00425686,564.126,1070.45,1071.35,0.00425686,0.00425497
381.0,0.00375295,564.291,1075.63,1076.52,0.00375295,0.00375106
384.0,0.0015454,564.456,1080.81,1081.7,0.00222448,0.00222259
387.0,0.00334524,564.621,1085.99,1086.87,0.00246975,0.00246786
390.0,0.00272244,564.786,1091.16,1092.03,0.00218095,0.00217906
393.0,0.00060228,564.951,1096.34,1097.2,0.00215128,0.00214939
396.0,0.00537917,565.116,1101.5,1102.36,0.00424052,0.00423864
399.0,0.0060167,565.281,1106.67,1107.52,0.00554671,0.00554483
402.0,0.00462387,565.446,1111.83,1112.67,0.00515077,0.00514889
405.0,0.0021169,565.611,1116.99,1117.82,0.0021169,0.00211502
408.0,0.00140607,565.776,1122.14,1122.97,0.00106671,0.00106483
411.0,0.00219948,565.941,1127.3,1128.12,0.00219948,0.0021976
414.0,0.00554381,566.106,1132.45,1133.26,0.00542507,0.00542319
417.0,0.00554613,566.271,1137.59,1138.4,0.00555807,0.00555619
420.0,0.00572131,566.436,1142.74,1143.54,0.00572131,0.00571943
423.0,0.00397539,566.601,1147.88,1148.67,0.00397539,0.00397351
426.0,0.000741397,566.766,1153.02,1153.81,0.000958966,0.000957083
429.0,0.00178301,566.931,1158.15,1158.93,0.00178301,0.00178113
432.0,0.00388583,567.096,1163.28,1164.06,0.00301542,0.00301354
435.0,0.00165618,567.261,1168.41,1169.18,0.00165618,0.0016543
438.0,0.0,567.426,1173.54,1174.3,0.0010604,0.00105852
441.0,0.00437144,567.591,1178.66,1179.42,0.00342117,0.00341929
444.0,0.00254768,567.756,1183.78,1184.53,0.00342117,0.00341929
447.0,0.00435779,567.921,1188.9,1189.64,0.00355253,0.00355065
450.0,0.000426737,568.086,1194.01,1194.75,0.00257892,0.00257704
453.0,0.00632383,568.251,1199.12,1199.85,0.00435001,0.00434813
456.0,0.00593141,568.416,1204.23,1204.95,0.00593141,0.00592953
459.0,0.00573489,568.58,1209.33,1210.05,0.00573489,0.00573301
462.0,0.00432732,568.745,1214.44,1215.15,0.00432732,0.00432544
465.0,0.00391629,568.91,1219.53,1220.24,0.00350526,0.00350338
468.0,0.00216477,569.075,1224.63,1225.33,0.00270328,0.0027014
471.0,0.0019564,569.24,1229.72,1230.42,0.002726,0.00272412
474.0,0.00375074,569.405,1234.81,1235.5,0.00317637,0.00317449
477.0,0.00314818,569.57,1239.9,1240.58,0.00265578,0.0026539
480.0,0.00233777,569.735,1244.99,1245.66,0.00227533,0.00227345
483.0,0.00211479,569.9,1250.07,1250.73,0.00227533,0.00227345
486.0,0.00336787,570.065,1255.14,1255.8,0.00298101,0.00297913
489.0,0.00240293,570.23,1260.22,1260.87,0.00232884,0.00232696
492.0,0.000858778,570.395,1265.29,1265.94,0.00141935,0.00141747
495.0,0.00189339,570.56,1270.36,1271,0.00189339,0.00189151
498.0,0.00318943,570.725,1275.43,1276.06,0.00318943,0.00318755
501.0,0.000762402,570.89,1280.49,1281.12,0.00112339,0.00112151
504.0,0.00132564,571.055,1285.55,1286.17,0.00125513,0.00125325
507.0,0.00114029,571.22,1290.61,1291.22,0.00125513,0.00125325
510.0,0.000759256,571.385,1295.67,1296.27,0.00231686,0.00231498
513.0,0.00541603,571.55,1300.72,1301.32,0.00541603,0.00541415
516.0,0.00718686,571.715,1305.77,1306.36,0.00718686,0.00718498
519.0,0.0139893,571.88,1310.81,1311.4,0.0139893,0.0139874
522.0,0.0362626,572.045,1315.86,1316.44,0.0362626,0.0362607
525.0,0.0532798,572.21,1320.9,1321.47,0.0500894,0.0500875
528.0,0.0476128,572.375,1325.94,1326.5,0.0476128,0.0476109
531.0,0.0282545,572.54,1330.97,1331.53,0.0282545,0.0282526
534.0,0.00428668,572.705,1336,1336.56,0.00428668,0.0042848
537.0,0.0,572.87,1341.03,1341.58,0.0,-1.87853e-06
540.0,0.0,573.035,1346.06,1346.6,0.0,-1.87842e-06
543.0,0.00143273,573.2,1351.08,1351.61,0.00143273,0.00143085
546.0,0.00402726,573.365,1356.1,1356.63,0.00267261,0.00267073
549.0,0.0,573.53,1361.12,1361.64,0.000561608,0.00055973
552.0,0.00424657,573.695,1366.13,1366.65,0.00205191,0.00205003
555.0,0.000810152,573.86,1371.14,1371.65,0.00205191,0.00205003
558.0,0.00373201,574.025,1376.15,1376.65,0.0019843,0.00198242
561.0,0.00216328,574.19,1381.16,1381.65,0.00216328,0.0021614
564.0,0.00439705,574.355,1386.16,1386.65,0.00440181,0.00439993
567.0,0.00628157,574.52,1391.16,1391.64,0.00589652,0.00589464
570.0,0.00963607,574.685,1396.16,1396.63,0.00963607,0.00963419
573.0,0.0166087,574.85,1401.15,1401.62,0.0166087,0.0166068
576.0,0.0197683,575.015,1406.14,1406.61,0.0192492,0.0192473
579.0,0.0186641,575.18,1411.13,1411.59,0.0186641,0.0186622
582.0,0.0112204,575.345,1416.12,1416.57,0.0112204,0.0112185
585.0,0.0028109,575.51,1421.1,1421.54,0.0028109,0.00280902
588.0,0.0,575.675,1426.08,1426.52,0.0,-1.87706e-06
591.0,0.00161006,575.84,1431.06,1431.49,0.00161006,0.00160818
594.0,0.00426439,576.005,1436.03,1436.46,0.00331,0.00330812
597.0,0.00526851,576.17,1441,1441.42,0.00526851,0.00526663
600.0,0.00597532,576.335,1445.97,1446.38,0.00639485,0.00639297
603.0,0.00616531,576.5,1450.94,1451.34,0.00575653,0.00575465
606.0,0.0052474,576.665,1455.9,1456.3,0.0052474,0.00524552
609.0,0.0050165,576.83,1460.86,1461.25,0.00482881,0.00482693
612.0,0.0,576.995,1465.82,1466.2,1.89212e-05,1.70446e-05
615.0,0.00138069,577.16,1470.77,1471.15,0.0,-1.8765e-06
618.0,0.00140177,577.325,1475.72,1476.1,0.000468897,0.000467021
621.0,0.000501494,577.49,1480.67,1481.04,0.00122385,0.00122197
624.0,0.00105272,577.655,1485.62,1485.98,0.00122385,0.00122197
627.0,0.00119111,577.82,1490.56,1490.91,0.00119111,0.00118923
630.0,0.00349969,577.985,1495.5,1495.85,0.00349969,0.00349781
633.0,0.00511804,578.15,1500.44,1500.78,0.00511804,0.00511616
636.0,0.00359455,578.315,1505.37,1505.71,0.00408389,0.00408201
639.0,0.00708406,578.48,1510.3,1510.63,0.00691555,0.00691367
642.0,0.0054058,578.645,1515.23,1515.55,0.00456417,0.00456229
645.0,0.00326514,578.81,1520.16,1520.47,0.00326514,0.00326326
648.0,0.00118981,578.975,1525.08,1525.39,0.00148528,0.0014834
651.0,0.00279429,579.14,1530,1530.31,0.0018597,0.00185782
654.0,0.00114083,579.305,1534.92,1535.22,0.0018597,0.00185782
657.0,0.00104736,579.47,1539.83,1540.13,0.000932212,0.000930337
660.0,0.00119292,579.635,1544.75,1545.03,0.000855282,0.000853407
663.0,4.02075e-05,579.8,1549.65,1549.93,0.000764782,0.000762907
666.0,0.00297243,579.965,1554.56,1554.83,0.00337083,0.00336896
669.0,0.00576349,580.13,1559.47,1559.73,0.00576349,0.00576162
672.0,0.00940229,580.295,1564.37,1564.63,0.00879696,0.00879509
675.0,0.00931779,580.46,1569.26,1569.52,0.0082276,0.00822573
678.0,0.00360576,580.625,1574.16,1574.41,0.00360576,0.00360389
681.0,0.0022226,580.79,1579.05,1579.29,0.00246242,0.00246055
684.0,0.00153283,580.955,1583.94,1584.18,0.00153283,0.00153096
687.0,0.0,581.12,1588.83,1589.06,0.000112764,0.00011089
690.0,0.000917296,581.285,1593.71,1593.94,0.000112764,0.000110891
693.0,5.83828e-05,581.45,1598.59,1598.81,5.83828e-05,5.65096e-05
696.0,0.000749536,581.614,1603.47,1603.68,0.000749536,0.000747663
699.0,0.00203133,581.779,1608.35,1608.55,0.00209378,0.00209191
702.0,0.00410311,581.944,1613.22,1613.42,0.00239825,0.00239638
705.0,0.000390019,582.109,1618.09,1618.28,0.0016731,0.00167123
708.0,0.00176094,582.274,1622.96,1623.15,0.00245849,0.00245662
711.0,0.0059756,582.439,1627.83,1628,0.00450786,0.00450599
714.0,0.00162884,582.604,1632.69,1632.86,0.00328588,0.00328401
717.0,0.00315439,582.769,1637.55,1637.71,0.00315439,0.00315252
720.0,0.0,582.934,1642.4,1642.56,0.0,-1.87019e-06
723.0,0.000785306,583.099,1647.26,1647.41,0.000342718,0.000340848
726.0,0.000152667,583.264,1652.11,1652.26,0.00126745,0.00126558
729.0,0.00380196,583.429,1656.96,1657.1,0.00380196,0.00380009
732.0,0.00371223,583.594,1661.8,1661.94,0.00363144,0.00362957
735.0,0.00588408,583.759,1666.65,1666.77,0.00588408,0.00588221
738.0,0.00386771,583.924,1671.49,1671.61,0.00386771,0.00386584
741.0,0.00297083,584.089,1676.32,1676.44,0.00173565,0.00173378
744.0,0.000726278,584.254,1681.16,1681.27,0.00165838,0.00165651
747.0,0.0,584.419,1685.99,1686.09,0.000430304,0.000428437
750.0,0.00121653,584.584,1690.82,1690.92,0.000967686,0.000965819
753.0,0.00096534,584.749,1695.65,1695.74,0.00118576,0.00118389
756.0,0.00289358,584.914,1700.47,1700.55,0.00238608,0.00238421
759.0,0.00143596,585.079,1705.29,1705.37,0.00143596,0.00143409
762.0,0.0,585.244,1710.11,1710.18,0.000528769,0.000526903
765.0,0.00210016,585.409,1714.92,1714.99,0.00177119,0.00176932
768.0,0.0022079,585.574,1719.74,1719.8,0.0022079,0.00220603
771.0,0.00317861,585.739,1724.55,1724.6,0.00317861,0.00317675
774.0,0.00282926,585.904,1729.35,1729.4,0.00260661,0.00260475
777.0,0.0022179,586.069,1734.16,1734.2,0.00247373,0.00247187
780.0,0.0,586.234,1738.96,1739,0.000594242,0.000592378
783.0,0.00147717,586.399,1743.76,1743.79,0.00147717,0.00147531
786.0,0.00302113,586.564,1748.56,1748.58,0.00265997,0.00265811
789.0,0.00260551,586.729,1753.35,1753.37,0.00260551,0.00260365
792.0,0.000893433,586.894,1758.14,1758.15,0.000961479,0.000959616
795.0,0.00415909,587.059,1762.93,1762.94,0.0032618,0.00325994
798.0,0.000496066,587.224,1767.72,1767.72,0.00170477,0.00170291
801.0,0.00263071,587.389,1772.5,1772.49,0.00242343,0.00242157
804.0,0.00250262,587.554,1777.28,1777.27,0.00242343,0.00242157
807.0,0.0,587.719,1782.06,1782.04,0.0,-1.86148e-06
810.0,0.00147589,587.884,1786.83,1786.81,0.00147589,0.00147403
813.0,0.000902626,588.049,1791.61,1791.57,0.000902626,0.000900765
816.0,0.0013136,588.214,1796.38,1796.34,0.000370834,0.000368973
819.0,0.0,588.379,1801.14,1801.1,0.000289322,0.000287462
822.0,0.00209792,588.544,1805.91,1805.86,0.00209792,0.00209606
825.0,0.00220451,588.709,1810.67,1810.61,0.00223088,0.00222902
828.0,0.00278441,588.874,1815.43,1815.37,0.00274082,0.00273896
831.0,0.0023104,589.039,1820.19,1820.12,0.0023104,0.00230854
834.0,0.000982147,589.204,1824.94,1824.86,0.000982147,0.000980289
837.0,0.000856464,589.369,1829.69,1829.61,0.00102853,0.00102667
840.0,0.00100552,589.534,1834.44,1834.35,0.00102853,0.00102667
843.0,0.00108955,589.699,1839.18,1839.09,0.00108955,0.00108769
846.0,0.00271214,589.864,1843.93,1843.83,0.00260651,0.00260465
849.0,0.000317382,590.029,1848.67,1848.56,0.00125718,0.00125532
852.0,0.00129697,590.194,1853.41,1853.29,0.0012834,0.00128154
855.0,0.00130885,590.359,1858.14,1858.02,0.00144191,0.00144005
858.0,0.00174103,590.524,1862.87,1862.75,0.00144191,0.00144005
861.0,0.00122661,590.689,1867.6,1867.47,0.00122661,0.00122475
864.0,0.00274547,590.854,1872.33,1872.2,0.0021415,0.00213965
867.0,0.00239166,591.019,1877.06,1876.91,0.0021415,0.00213965
870.0,0.00139756,591.184,1881.78,1881.63,0.00139756,0.00139571
873.0,0.00164472,591.349,1886.5,1886.34,0.000672002,0.000670148
876.0,0.0,591.514,1891.21,1891.05,0.0,-1.85333e-06
879.0,0.000861788,591.679,1895.93,1895.76,0.000861788,0.000859935
882.0,0.00133438,591.844,1900.64,1900.47,0.00163268,0.00163083
885.0,0.00190758,592.009,1905.35,1905.17,0.00190758,0.00190573
888.0,0.00328091,592.174,1910.05,1909.87,0.00265734,0.00265549
891.0,0.00143937,592.339,1914.76,1914.57,0.00143937,0.00143752
894.0,0.0,592.504,1919.46,1919.26,0.000194762,0.000192911
897.0,0.00161678,592.669,1924.16,1923.96,0.000817029,0.000815178
900.0,0.0,592.834,1928.85,1928.64,0.000476616,0.000474765
903.0,0.00268533,592.999,1933.55,1933.33,0.00268533,0.00268348
906.0,0.00369531,593.164,1938.24,1938.02,0.00367029,0.00366844
909.0,0.000642464,593.329,1942.93,1942.7,0.000907988,0.000906138
912.0,0.00199916,593.494,1947.61,1947.38,0.00187312,0.00187127
915.0,0.000249321,593.659,1952.29,1952.05,0.000249321,0.000247472
918.0,0.000321584,593.824,1956.97,1956.73,0.000321584,0.000319735
921.0,0.0019878,593.989,1961.65,1961.4,0.00195612,0.00195427
924.0,0.00327242,594.154,1966.33,1966.07,0.00196496,0.00196311
927.0,0.000479262,594.319,1971,1970.73,0.00154567,0.00154382
930.0,0.00342245,594.484,1975.67,1975.4,0.00316157,0.00315972
933.0,0.000861136,594.648,1980.33,1980.06,0.000861136,0.000859289
936.0,0.000721675,594.813,1985,1984.72,0.000691758,0.000689911
939.0,0.00478845,594.978,1989.66,1989.37,0.00366786,0.00366601
942.0,0.000763833,595.143,1994.32,1994.03,0.000763833,0.000761987
945.0,0.0,595.308,1998.98,1998.68,0.000285505,0.000283659
948.0,0.000898691,595.473,2003.63,2003.33,0.000607679,0.000605833
951.0,0.00105427,595.638,2008.28,2007.97,0.00105427,0.00105242
954.0,0.000711504,595.803,2012.93,2012.62,0.000711504,0.000709659
957.0,0.0,595.968,2017.58,2017.26,0.0,-1.84472e-06
960.0,0.000869435,596.133,2022.22,2021.89,0.000869435,0.000867591
963.0,0.00328229,596.298,2026.86,2026.53,0.00182319,0.00182135
966.0,0.000108935,596.463,2031.5,2031.16,0.00110035,0.00109851
969.0,0.00191417,596.628,2036.14,2035.79,0.00191417,0.00191233
972.0,0.00286118,596.793,2040.77,2040.42,0.00286118,0.00285934
975.0,0.00199975,596.958,2045.4,2045.05,0.00199975,0.00199791
978.0,0.0,597.123,2050.03,2049.67,0.0,-1.84286e-06
981.0,0.0,597.288,2054.66,2054.29,0.000666914,0.000665071
984.0,0.0027462,597.453,2059.28,2058.91,0.00268637,0.00268453
987.0,0.00110351,597.618,2063.9,2063.52,0.00110351,0.00110167
990.0,0.0,597.783,2068.52,2068.13,0.0,-1.8419e-06
993.0,7.95377e-05,597.948,2073.14,2072.74,7.95377e-05,7.7696e-05
996.0,0.00244519,598.113,2077.75,2077.35,0.00170028,0.00169844
999.0,0.00150702,598.278,2082.36,2081.95,0.00172986,0.00172802
1002.0,0.0026157,598.443,2086.97,2086.56,0.00172986,0.00172802
1005.0,0.0,598.608,2091.57,2091.16,0.000323453,0.000321612
1008.0,0.00113919,598.773,2096.18,2095.75,0.000665249,0.000663408
1011.0,0.0017663,598.938,2100.78,2100.35,0.001421,0.00141916
1014.0,0.0,599.103,2105.38,2104.94,0.0,-1.84024e-06
1017.0,0.0,599.268,2109.97,2109.53,0.0,-1.84006e-06
1020.0,0.000225436,599.433,2114.56,2114.12,0.00123629,0.00123445
1023.0,0.00216739,599.598,2119.15,2118.7,0.00119261,0.00119077
1026.0,9.46969e-05,599.763,2123.74,2123.28,0.000992436,0.000990596
1029.0,0.00161818,599.928,2128.33,2127.86,0.00161818,0.00161634
1032.0,0.000308378,600.093,2132.91,2132.44,0.000439116,0.000437277
1035.0,0.000175937,600.258,2137.49,2137.01,0.0,-1.839e-06
1038.0,0.0,600.423,2142.07,2141.59,0.0,-1.83884e-06
1041.0,0.00303275,600.588,2146.64,2146.15,0.00210063,0.00209879
1044.0,0.00156583,600.753,2151.22,2150.72,0.00127863,0.00127679
1047.0,0.0,600.918,2155.79,2155.29,0.0,-1.83838e-06
1050.0,0.0,601.083,2160.35,2159.85,0.000167239,0.000165401
1053.0,0.00197993,601.248,2164.92,2164.41,0.0019001,0.00189826
1056.0,0.000400121,601.413,2169.48,2168.96,0.000757325,0.000755487
1059.0,0.0018372,601.578,2174.04,2173.52,0.0013545,0.00135266
1062.0,0.000806058,601.743,2178.6,2178.07,0.000806058,0.00080422
1065.0,0.000390658,601.908,2183.16,2182.62,0.000390658,0.00038882
1068.0,6.86275e-05,602.073,2187.71,2187.17,0.0,-1.83749e-06
1071.0,0.00121585,602.238,2192.26,2191.71,0.00121585,0.00121401
1074.0,0.00230212,602.403,2196.81,2196.25,0.00230212,0.00230028
1077.0,0.000248951,602.568,2201.35,2200.79,0.000471644,0.000469807
1080.0,0.00054896,602.733,2205.89,2205.33,0.000499639,0.000497802
1083.0,0.00273549,602.898,2210.43,2209.86,0.00273549,0.00273365
1086.0,0.00317737,603.063,2214.97,2214.4,0.00321368,0.00321184
1089.0,0.000709031,603.228,2219.51,2218.92,0.000711182,0.000709345
1092.0,0.000284504,603.393,2224.04,2223.45,0.00083545,0.000833613
1095.0,0.00108018,603.558,2228.57,2227.98,0.00105128,0.00104944
1098.0,0.000894951,603.723,2233.1,2232.5,0.00069252,0.000690683
1101.0,0.000858775,603.888,2237.62,2237.02,0.000858775,0.000856939
1104.0,0.00193432,604.053,2242.15,2241.54,0.00180237,0.00180053
1107.0,0.0,604.218,2246.67,2246.05,0.0,-1.83627e-06
1110.0,0.000410391,604.383,2251.19,2250.56,0.000410391,0.000408555
1113.0,0.00326762,604.548,2255.7,2255.07,0.00246838,0.00246654
1116.0,0.0010697,604.713,2260.21,2259.58,0.0020132,0.00201136
1119.0,0.00274507,604.878,2264.72,2264.08,0.0020132,0.00201136
1122.0,0.000770739,605.043,2269.23,2268.59,0.000770739,0.000768904
1125.0,0.0,605.208,2273.74,2273.09,0.000138291,0.000136456
1128.0,0.0,605.373,2278.24,2277.58,0.0,-1.8351e-06
1131.0,0.000739808,605.538,2282.74,2282.08,0.000739808,0.000737973
1134.0,0.000999353,605.703,2287.24,2286.57,0.0011699,0.00116807
1137.0,0.000973851,605.868,2291.74,2291.06,0.00116975,0.00116792
1140.0,0.000261772,606.033,2296.23,2295.55,0.000813919,0.000812084
1143.0,0.00152414,606.198,2300.72,2300.03,0.000730297,0.000728463
1146.0,0.0,606.363,2305.21,2304.52,6.56995e-05,6.38653e-05
1149.0,0.00181826,606.528,2309.7,2309,0.000408321,0.000406487
1152.0,0.0,606.693,2314.18,2313.47,0.000408321,0.000406487
1155.0,0.00189621,606.858,2318.66,2317.95,0.00116234,0.00116051
1158.0,0.00180386,607.023,2323.14,2322.42,0.00180386,0.00180203
1161.0,0.00179182,607.188,2327.62,2326.89,0.00173371,0.00173188
1164.0,8.42274e-05,607.353,2332.09,2331.36,0.000813792,0.000811959
1167.0,0.000938169,607.518,2336.56,2335.83,0.000917565,0.000915732
1170.0,0.0,607.682,2341.03,2340.29,0.000565725,0.000563892
1173.0,0.00243204,607.847,2345.5,2344.75,0.00144137,0.00143954
1176.0,0.0,608.012,2349.96,2349.21,0.0,-1.83291e-06
1179.0,0.0,608.177,2354.42,2353.67,0.0,-1.83281e-06
1182.0,0.00197207,608.342,2358.88,2358.12,0.00116719,0.00116536
1185.0,0.0,608.507,2363.34,2362.57,0.00058407,0.000582237
1188.0,0.000526468,608.672,2367.79,2367.02,0.000526468,0.000524635
1191.0,0.00140377,608.837,2372.25,2371.47,0.000816807,0.000814975
1194.0,0.00105182,609.002,2376.7,2375.91,0.000816807,0.000814975
1197.0,0.00129507,609.167,2381.14,2380.35,0.000745719,0.000743887
1200.0,0.0,609.332,2385.59,2384.79,0.0,-1.83219e-06
1203.0,0.0,609.497,2390.03,2389.23,0.0,-1.83211e-06
1206.0,0.00105946,609.662,2394.47,2393.66,0.000393225,0.000391393
1209.0,0.000760656,609.827,2398.91,2398.09,0.000332287,0.000330455
1212.0,4.15276e-05,609.992,2403.34,2402.52,0.000562822,0.00056099
1215.0,0.00086164,610.157,2407.78,2406.95,0.00086164,0.000859808
1218.0,0.0,610.322,2412.21,2411.38,0.0,-1.83158e-06
1221.0,0.00491876,610.487,2416.63,2415.8,0.00425641,0.00425458
1224.0,0.000519426,610.652,2421.06,2420.22,0.000519426,0.000517595
1227.0,0.0,610.817,2425.48,2424.64,0.0,-1.83111e-06
1230.0,0.00073667,610.982,2429.9,2429.05,0.00073667,0.000734839
1233.0,0.00274773,611.147,2434.32,2433.46,0.00201044,0.00200861
1236.0,0.00168449,611.312,2438.74,2437.87,0.00110347,0.00110164
1239.0,0.0,611.477,2443.15,2442.28,0.000311007,0.000309176
1242.0,0.0014137,611.642,2447.56,2446.69,2.44943e-05,2.26639e-05
1245.0,0.0,611.807,2451.97,2451.09,2.44943e-05,2.26641e-05
1248.0,0.00413255,611.972,2456.38,2455.49,0.00164327,0.00164144
1251.0,0.0,612.137,2460.78,2459.89,0.00124791,0.00124608
1254.0,0.00242339,612.302,2465.19,2464.29,0.00228763,0.0022858
1257.0,0.0017197,612.467,2469.59,2468.68,0.0017197,0.00171787
1260.0,0.000271364,612.632,2473.98,2473.07,0.000149942,0.000148113
1263.0,0.0,612.797,2478.38,2477.46,0.0,-1.82914e-06
1266.0,0.00030409,612.962,2482.77,2481.85,0.0,-1.82898e-06
1269.0,0.00101797,613.127,2487.16,2486.23,0.00101797,0.00101614
1272.0,0.000887379,613.292,2491.55,2490.61,0.000887379,0.00088555
1275.0,0.000596262,613.457,2495.93,2494.99,5.50903e-06,3.68049e-06
1278.0,0.0,613.622,2500.32,2499.37,0.0,-1.82839e-06
1281.0,0.0,613.787,2504.7,2503.75,0.0,-1.82825e-06
1284.0,0.000385023,613.952,2509.07,2508.12,0.00062501,0.000623182
1287.0,0.00225851,614.117,2513.45,2512.49,0.00185909,0.00185726
1290.0,6.98009e-05,614.282,2517.82,2516.86,0.000437319,0.000435491
1293.0,0.000530779,614.447,2522.19,2521.22,0.000437319,0.000435491
1296.0,0.00120962,614.612,2526.56,2525.59,0.00120962,0.00120779
1299.0,0.000444331,614.777,2530.93,2529.95,0.000444331,0.000442503
1302.0,0.0,614.942,2535.29,2534.3,0.0,-1.82742e-06
1305.0,0.00197477,615.107,2539.66,2538.66,0.00141098,0.00140915
1308.0,0.0,615.272,2544.02,2543.01,0.0,-1.82722e-06
1311.0,0.0,615.437,2548.37,2547.37,0.0,-1.82714e-06
1314.0,0.0,615.602,2552.73,2551.72,0.0,-1.82706e-06
1317.0,0.0,615.767,2557.08,2556.06,0.0,-1.827e-06
1320.0,0.00029805,615.932,2561.43,2560.41,0.000418078,0.000416251
1323.0,0.0,616.097,2565.78,2564.75,0.0,-1.82691e-06
1326.0,0.00161943,616.262,2570.12,2569.09,0.00160077,0.00159894
1329.0,0.000602653,616.427,2574.47,2573.43,0.000602653,0.000600826
1332.0,0.0,616.592,2578.81,2577.76,0.0,-1.82681e-06
1335.0,0.000389487,616.757,2583.15,2582.09,0.000389487,0.00038766
1338.0,0.00125069,616.922,2587.48,2586.42,0.00116315,0.00116132
1341.0,0.0,617.087,2591.82,2590.75,0.000490806,0.000488979
1344.0,0.00168401,617.252,2596.15,2595.08,0.00160685,0.00160502
1347.0,0.00155639,617.417,2600.48,2599.4,0.00155639,0.00155456
1350.0,0.00276606,617.582,2604.8,2603.72,0.00266889,0.00266706
1353.0,0.00175684,617.747,2609.13,2608.04,0.002689,0.00268717
1356.0,0.00227005,617.912,2613.45,2612.36,0.00227005,0.00226822
1359.0,0.0,618.077,2617.77,2616.67,0.0,-1.82673e-06
1362.0,7.01152e-05,618.242,2622.09,2620.99,0.0,-1.82671e-06
1365.0,0.000703512,618.407,2626.4,2625.3,0.000703512,0.000701685
1368.0,0.000576572,618.572,2630.72,2629.6,0.000576572,0.000574745
1371.0,0.000382472,618.737,2635.03,2633.91,0.000382472,0.000380645
1374.0,0.0,618.902,2639.34,2638.21,0.0,-1.82668e-06
1377.0,0.00272202,619.067,2643.64,2642.51,0.00106508,0.00106325
1380.0,6.86951e-05,619.232,2647.95,2646.81,0.000463867,0.00046204
1383.0,0.0,619.397,2652.25,2651.11,9.99466e-05,9.81199e-05
1386.0,0.00217855,619.562,2656.55,2655.4,0.00217855,0.00217672
1389.0,0.00242208,619.727,2660.84,2659.69,0.00239276,0.00239093
1392.0,0.0,619.892,2665.14,2663.98,0.0,-1.82678e-06
1395.0,0.00148686,620.057,2669.43,2668.27,0.00148686,0.00148503
1398.0,0.0025761,620.222,2673.72,2672.55,0.00252592,0.00252409
1401.0,0.0,620.387,2678.01,2676.84,0.000429236,0.000427409
1404.0,0.00102341,620.551,2682.29,2681.12,0.000429236,0.000427409
1407.0,0.0,620.716,2686.58,2685.39,0.000230184,0.000228357
1410.0,0.0,620.881,2690.86,2689.67,0.000120244,0.000118417
1413.0,0.000406607,621.046,2695.14,2693.94,0.000583124,0.000581297
1416.0,0.00105832,621.211,2699.41,2698.21,0.00101964,0.00101781
1419.0,0.0,621.376,2703.69,2702.48,0.000146718,0.000144891
1422.0,0.0,621.541,2707.96,2706.75,0.0,-1.82735e-06
1425.0,3.62402e-06,621.706,2712.23,2711.01,0.0,-1.82744e-06
1428.0,0.000563481,621.871,2716.5,2715.27,0.000563481,0.000561653
1431.0,0.00127298,622.036,2720.76,2719.53,0.00127298,0.00127115
1434.0,4.9424e-05,622.201,2725.03,2723.79,0.000473869,0.000472041
1437.0,0.00356767,622.366,2729.29,2728.05,0.0014636,0.00146177
1440.0,0.0,622.531,2733.54,2732.3,0.000847583,0.000845755
1443.0,0.00194122,622.696,2737.8,2736.55,0.00194122,0.00193939
1446.0,0.00335895,622.861,2742.05,2740.8,0.00291013,0.0029083
1449.0,0.00111937,623.026,2746.31,2745.04,0.00111937,0.00111754
1452.0,0.0,623.191,2750.56,2749.29,0.0,-1.82751e-06
1455.0,0.00226227,623.356,2754.8,2753.53,0.000858671,0.000856844
1458.0,0.0,623.521,2759.05,2757.77,0.000384673,0.000382846
1461.0,0.000912994,623.686,2763.29,2762.01,0.000912994,0.000911167
1464.0,0.00358797,623.851,2767.53,2766.24,0.0012473,0.00124547
1467.0,0.0,624.016,2771.77,2770.47,2.63981e-05,2.45707e-05
1470.0,0.0,624.181,2776,2774.7,0.0,-1.82739e-06
1473.0,0.000868017,624.346,2780.24,2778.93,0.000868017,0.00086619
1476.0,0.000169992,624.511,2784.47,2783.16,0.000440029,0.000438202
1479.0,0.000548181,624.676,2788.7,2787.38,0.000548181,0.000546354
1482.0,0.0,624.841,2792.93,2791.6,0.000582643,0.000580816
1485.0,0.000983403,625.006,2797.15,2795.82,0.000582643,0.000580816
1488.0,0.000329897,625.171,2801.37,2800.04,0.0,-1.82707e-06
1491.0,0.000663214,625.336,2805.59,2804.25,0.000183196,0.000181369
1494.0,0.0,625.501,2809.81,2808.47,0.000133841,0.000132014
1497.0,0.000149462,625.666,2814.03,2812.68,0.000149462,0.000147635
1500.0,0.000329243,625.831,2818.24,2816.89,0.000329243,0.000327416
1503.0,0.0,625.996,2822.45,2821.09,0.0,-1.82697e-06
1506.0,0.000401488,626.161,2826.66,2825.3,0.000401488,0.000399661
1509.0,0.000997184,626.326,2830.87,2829.5,0.000997184,0.000995357
1512.0,0.00142155,626.491,2835.07,2833.7,0.00142155,0.00141972
1515.0,0.000371412,626.656,2839.27,2837.89,0.000371412,0.000369585
1518.0,2.67796e-05,626.821,2843.48,2842.09,2.67796e-05,2.49526e-05
1521.0,0.0,626.986,2847.67,2846.28,0.0,-1.82699e-06
1524.0,0.0,627.151,2851.87,2850.47,0.0,-1.82695e-06
1527.0,0.00142879,627.316,2856.06,2854.66,0.000155795,0.000153968
1530.0,0.0,627.481,2860.25,2858.85,0.000105821,0.000103994
1533.0,0.0,627.646,2864.44,2863.03,0.0,-1.8269e-06
1536.0,0.000394883,627.811,2868.63,2867.21,0.000394883,0.000393056
1539.0,0.00262826,627.976,2872.82,2871.39,0.00231668,0.00231485
1542.0,0.00231042,628.141,2877,2875.57,0.00263081,0.00262898
1545.0,0.00436221,628.306,2881.18,2879.74,0.0028106,0.00280877
1548.0,0.0,628.471,2885.36,2883.92,0.0,-1.82693e-06
1551.0,0.0,628.636,2889.53,2888.09,0.0,-1.82694e-06
1554.0,0.00278766,628.801,2893.71,2892.26,0.00189711,0.00189528
1557.0,0.00247166,628.966,2897.88,2896.42,0.00214793,0.0021461
1560.0,0.00276357,629.131,2902.05,2900.59,0.00259772,0.00259589
1563.0,0.0,629.296,2906.21,2904.75,0.0,-1.82706e-06
1566.0,0.000477816,629.461,2910.38,2908.91,0.0,-1.8271e-06
1569.0,0.0,629.626,2914.54,2913.06,0.0,-1.82714e-06
1572.0,0.0027842,629.791,2918.7,2917.22,0.0027842,0.00278237
1575.0,0.0026983,629.956,2922.86,2921.37,0.0026983,0.00269647
1578.0,0.0,630.121,2927.02,2925.52,0.000294957,0.00029313
1581.0,0.0,630.286,2931.17,2929.67,0.000294957,0.00029313
1584.0,0.0010697,630.451,2935.32,2933.82,0.000208668,0.000206841
1587.0,0.0,630.616,2939.47,2937.96,0.0,-1.82756e-06
1590.0,0.00180199,630.781,2943.62,2942.11,0.000833368,0.00083154
1593.0,0.000212119,630.946,2947.77,2946.25,0.000212119,0.000210291
1596.0,0.00241233,631.111,2951.91,2950.38,0.00241233,0.0024105
1599.0,0.00277052,631.276,2956.05,2954.52,0.00319508,0.00319325
1602.0,0.0111693,631.441,2960.19,2958.65,0.0111693,0.0111675
1605.0,0.0260504,631.606,2964.33,2962.79,0.0260504,0.0260486
1608.0,0.0354151,631.771,2968.46,2966.92,0.0354151,0.0354133
1611.0,0.0371856,631.936,2972.6,2971.04,0.0371856,0.0371838
1614.0,0.027128,632.101,2976.73,2975.17,0.027128,0.0271262
1617.0,0.0109588,632.266,2980.85,2979.29,0.0109588,0.010957
1620.0,0.0,632.431,2984.98,2983.41,0.0,-1.82864e-06
1623.0,0.0,632.596,2989.1,2987.53,0.0,-1.82875e-06
1626.0,0.0,632.761,2993.23,2991.65,0.0,-1.82888e-06
1629.0,0.00020716,632.926,2997.35,2995.76,0.000861124,0.000859295
1632.0,0.00989864,633.091,3001.46,2999.87,0.00989864,0.00989681
1635.0,0.0149187,633.256,3005.58,3003.98,0.0149187,0.0149169
1638.0,0.0145758,633.421,3009.69,3008.09,0.0145758,0.014574
1641.0,0.00720305,633.585,3013.8,3012.2,0.00720305,0.00720122
1644.0,0.0,633.75,3017.91,3016.3,0.0,-1.82973e-06
1647.0,0.0,633.915,3022.02,3020.4,0.0,-1.82988e-06
1650.0,0.0,634.08,3026.12,3024.5,0.0,-1.83005e-06
1653.0,0.0,634.245,3030.23,3028.6,0.0,-1.83024e-06
1656.0,0.0,634.41,3034.33,3032.69,0.0,-1.83044e-06
1659.0,0.0,634.575,3038.42,3036.79,0.0,-1.8306e-06
1662.0,0.00137034,634.74,3042.52,3040.88,0.000222955,0.000221124
1665.0,0.0,634.905,3046.61,3044.97,9.80224e-05,9.61917e-05
1668.0,0.0,635.07,3050.71,3049.05,0.0,-1.83081e-06
1671.0,0.000361086,635.235,3054.8,3053.14,0.0,-1.8309e-06
1674.0,0.000342729,635.4,3058.88,3057.22,0.000342729,0.000340898
1677.0,0.0,635.565,3062.97,3061.3,0.000607918,0.000606087
1680.0,0.0,635.73,3067.05,3065.38,0.000482457,0.000480626
1683.0,0.000598725,635.895,3071.13,3069.45,0.000408255,0.000406424
1686.0,0.0,636.06,3075.21,3073.53,0.0,-1.83135e-06
1689.0,0.0,636.225,3079.29,3077.6,0.0,-1.83133e-06
1692.0,0.0,636.39,3083.36,3081.67,0.0,-1.83132e-06
1695.0,0.00067704,636.555,3087.44,3085.74,0.00067704,0.000675209
1698.0,0.00278672,636.72,3091.51,3089.8,0.00277975,0.00277792
1701.0,0.000285055,636.885,3095.58,3093.87,0.000285055,0.000283224
1704.0,0.0,637.05,3099.64,3097.93,0.0,-1.83137e-06
1707.0,0.0013176,637.215,3103.71,3101.99,0.000631362,0.000629531
1710.0,0.0,637.38,3107.77,3106.04,0.000631362,0.000629531
1713.0,0.0,637.545,3111.83,3110.1,0.0,-1.83148e-06
1716.0,0.000202049,637.71,3115.89,3114.15,0.000202049,0.000200217
1719.0,0.00221999,637.875,3119.94,3118.2,0.00100297,0.00100114
1722.0,0.0,638.04,3124,3122.25,0.00100297,0.00100114
1725.0,0.00253838,638.205,3128.05,3126.3,0.00160214,0.00160031
1728.0,0.00141925,638.37,3132.1,3130.34,0.00160214,0.00160031
1731.0,0.000571257,638.535,3136.15,3134.38,0.00171507,0.00171324
1734.0,0.00242385,638.7,3140.19,3138.42,0.00188719,0.00188536
1737.0,0.00493302,638.865,3144.24,3142.46,0.00401504,0.00401321
1740.0,0.0030907,639.03,3148.28,3146.5,0.0030907,0.00308887
1743.0,0.0,639.195,3152.32,3150.53,0.000237812,0.00023598
1746.0,0.000757846,639.36,3156.35,3154.56,0.000910574,0.000908742
1749.0,0.0024634,639.525,3160.39,3158.59,0.00188912,0.00188729
1752.0,0.000862767,639.69,3164.42,3162.62,0.000862767,0.000860935
1755.0,0.000834414,639.855,3168.45,3166.65,0.000702469,0.000700637
1758.0,0.0,640.02,3172.48,3170.67,0.0,-1.83254e-06
1761.0,0.0,640.185,3176.51,3174.69,0.0,-1.83263e-06
1764.0,0.0001252,640.35,3180.53,3178.71,0.0,-1.83274e-06
1767.0,0.00023458,640.515,3184.55,3182.73,0.00023458,0.000232747
1770.0,0.0,640.68,3188.58,3186.74,0.0,-1.83299e-06
1773.0,0.0,640.845,3192.59,3190.76,0.0,-1.83312e-06
1776.0,0.0,641.01,3196.61,3194.77,0.0,-1.83328e-06
1779.0,0.00215198,641.175,3200.62,3198.78,0.000314371,0.000312538
1782.0,0.0,641.34,3204.64,3202.78,0.000507991,0.000506158
1785.0,0.000541376,641.505,3208.65,3206.79,0.000541376,0.000539542
1788.0,0.0,641.67,3212.65,3210.79,0.0,-1.83364e-06
1791.0,0.00037026,641.835,3216.66,3214.79,0.0,-1.83375e-06
1794.0,0.00150259,642,3220.66,3218.79,0.000852752,0.000850918
1797.0,0.000744901,642.165,3224.67,3222.79,0.000852752,0.000850918
1800.0,9.14885e-05,642.33,3228.67,3226.78,9.14885e-05,8.96544e-05
1803.0,0.000196431,642.495,3232.66,3230.78,0.000196431,0.000194597
1806.0,0.00181895,642.66,3236.66,3234.77,0.000458528,0.000456694
1809.0,0.0,642.825,3240.65,3238.76,0.0,-1.83444e-06
1812.0,0.000456168,642.99,3244.65,3242.74,0.000456168,0.000454333
1815.0,0.00146965,643.155,3248.64,3246.73,0.00139856,0.00139673
1818.0,0.000125986,643.32,3252.62,3250.71,0.00039877,0.000396935
1821.0,0.00227894,643.485,3256.61,3254.69,0.000507868,0.000506033
1824.0,0.0,643.65,3260.59,3258.67,0.000296712,0.000294877
1827.0,0.00188317,643.815,3264.57,3262.64,0.00035338,0.000351545
1830.0,0.0,643.98,3268.55,3266.62,7.34724e-05,7.1637e-05
1833.0,0.00165818,644.145,3272.53,3270.59,0.000920979,0.000919143
1836.0,0.0,644.31,3276.51,3274.56,5.17281e-05,4.98923e-05
1839.0,0.0,644.475,3280.48,3278.53,0.0,-1.83582e-06
1842.0,0.000300755,644.64,3284.45,3282.5,5.28444e-05,5.10085e-05
1845.0,0.00167303,644.805,3288.42,3286.46,0.00105373,0.00105189
1848.0,0.000671448,644.97,3292.39,3290.42,0.00105373,0.00105189
1851.0,0.000491069,645.135,3296.35,3294.38,0.000491069,0.000489233
1854.0,0.000121637,645.3,3300.31,3298.34,0.00030663,0.000304795
1857.0,0.0,645.465,3304.28,3302.3,0.0,-1.83534e-06
1860.0,0.0,645.63,3308.23,3306.25,0.0,-1.83524e-06
1863.0,0.00049844,645.795,3312.19,3310.2,0.000335067,0.000333232
1866.0,0.0,645.96,3316.15,3314.15,0.000229267,0.000227432
1869.0,0.000120851,646.125,3320.1,3318.1,0.000229267,0.000227432
1872.0,0.00231355,646.29,3324.05,3322.05,0.00220011,0.00219828
1875.0,0.00108906,646.455,3328,3325.99,0.00108906,0.00108723
1878.0,0.0,646.619,3331.95,3329.93,0.0,-1.83481e-06
1881.0,0.000301061,646.784,3335.89,3333.87,0.000301061,0.000299226
1884.0,0.00111788,646.949,3339.83,3337.81,0.00111788,0.00111605
1887.0,0.000622586,647.114,3343.78,3341.74,0.000587313,0.000585478
1890.0,0.000936617,647.279,3347.71,3345.68,0.000936617,0.000934782
1893.0,0.00091118,647.444,3351.65,3349.61,0.00091118,0.000909345
1896.0,0.0,647.609,3355.59,3353.54,0.0,-1.83445e-06
1899.0,0.0,647.774,3359.52,3357.47,0.0,-1.8343e-06
1902.0,0.000453893,647.939,3363.45,3361.39,0.000345006,0.000343172
1905.0,0.000677752,648.104,3367.38,3365.32,0.000677752,0.000675918
1908.0,0.0,648.269,3371.31,3369.24,0.0,-1.83387e-06
1911.0,0.001103,648.434,3375.23,3373.16,0.000191472,0.000189638
1914.0,0.0,648.599,3379.15,3377.08,0.000170291,0.000168457
1917.0,0.00041495,648.764,3383.07,3380.99,0.000170291,0.000168457
1920.0,0.00179026,648.929,3386.99,3384.91,0.00140761,0.00140578
1923.0,0.0,649.094,3390.91,3388.82,0.000346599,0.000344766
1926.0,0.0,649.259,3394.83,3392.73,0.0,-1.83321e-06
1929.0,0.00118995,649.424,3398.74,3396.64,0.00101562,0.00101379
1932.0,0.000322231,649.589,3402.65,3400.54,0.00101562,0.00101379
1935.0,0.00194336,649.754,3406.56,3404.45,0.000117129,0.000115296
1938.0,0.0,649.919,3410.47,3408.35,0.0,-1.83289e-06
1941.0,6.88691e-05,650.084,3414.37,3412.25,6.88691e-05,6.70363e-05
1944.0,0.000353672,650.249,3418.27,3416.15,0.000353672,0.000351839
1947.0,0.0,650.414,3422.17,3420.04,0.0,-1.83271e-06
1950.0,0.00151332,650.579,3426.07,3423.94,0.000479354,0.000477521
1953.0,0.0,650.744,3429.97,3427.83,0.000479354,0.000477521
1956.0,0.00171891,650.909,3433.87,3431.72,0.00105525,0.00105342
1959.0,0.0,651.074,3437.76,3435.61,0.0,-1.83255e-06
1962.0,0.0,651.239,3441.65,3439.49,0.0,-1.83253e-06
1965.0,0.00223703,651.404,3445.54,3443.38,0.00158704,0.00158521
1968.0,0.00228105,651.569,3449.43,3447.26,0.00220991,0.00220808
1971.0,0.00211775,651.734,3453.31,3451.14,0.00211775,0.00211592
1974.0,0.0,651.899,3457.2,3455.02,0.0,-1.8325e-06
1977.0,0.0,652.064,3461.08,3458.89,0.0,-1.83251e-06
1980.0,0.00119406,652.229,3464.96,3462.77,0.00116447,0.00116264
1983.0,0.0,652.394,3468.83,3466.64,0.000189517,0.000187684
1986.0,0.00132358,652.559,3472.71,3470.51,0.000189517,0.000187684
1989.0,0.0,652.724,3476.58,3474.38,0.000162789,0.000160956
1992.0,0.000510203,652.889,3480.45,3478.25,0.000510203,0.00050837
1995.0,0.00178912,653.054,3484.32,3482.11,0.00140007,0.00139824
1998.0,5.07417e-05,653.219,3488.19,3485.97,5.07417e-05,4.89089e-05
2001.0,0.0,653.384,3492.06,3489.83,0.0,-1.83266e-06
2004.0,0.00036659,653.549,3495.92,3493.69,0.000412718,0.000410885
2007.0,0.00304628,653.714,3499.78,3497.55,0.00304628,0.00304445
2010.0,0.00310633,653.879,3503.64,3501.4,0.00310633,0.0031045
2013.0,0.000954119,654.044,3507.5,3505.26,0.000954119,0.000952287
2016.0,0.0,654.209,3511.36,3509.11,0.0,-1.83223e-06
2019.0,0.00041781,654.374,3515.21,3512.96,0.000226728,0.000224896
2022.0,0.000674356,654.539,3519.06,3516.8,0.000674356,0.000672524
2025.0,0.00381776,654.704,3522.91,3520.65,0.00298548,0.00298365
2028.0,0.000313574,654.869,3526.76,3524.49,0.000313574,0.000311742
2031.0,0.0,655.034,3530.61,3528.33,0.0,-1.83192e-06
2034.0,0.000898873,655.199,3534.45,3532.17,0.000105664,0.000103832
2037.0,0.0,655.364,3538.29,3536.01,0.0,-1.83184e-06
2040.0,0.00136221,655.529,3542.13,3539.85,0.00136221,0.00136038
2043.0,0.00129315,655.694,3545.97,3543.68,0.00129315,0.00129132
2046.0,0.0,655.859,3549.81,3547.51,0.0,-1.8318e-06
2047.0,0.000132067,655.914,3551.09,3548.79,0.0,-1.8318e-06