File: data/processed/processed_data/2024-09-03/2024-09-03_calcitecrystal_n_y_y_solid_5011_0_5.csv
Pixels #,Intensity (a.u.),Wavelength (nm),Raman shift (cm-1),Raman shift (cm-1) adjusted,Filtered Intensity (a.u.),Baselined Filtered Intensity (a.u.)
0.0,1.77139e-05,543.337,392.223,393.994,1.77139e-05,8.38986e-06
3.0,0.000247623,543.502,397.81,399.573,0.00064179,0.000632466
6.0,0.00187288,543.667,403.394,405.15,0.00190513,0.00189581
9.0,0.00199787,543.832,408.974,410.723,0.00190513,0.00189581
12.0,0.00116171,543.997,414.551,416.293,0.00116171,0.00115239
15.0,0.00141111,544.162,420.125,421.859,0.00141111,0.00140179
18.0,0.00244938,544.327,425.695,427.422,0.00224199,0.00223267
21.0,0.00133932,544.492,431.261,432.981,0.00133932,0.00133
24.0,0.000313896,544.657,436.825,438.537,0.000313896,0.000304572
27.0,0.000547957,544.822,442.385,444.09,8.82166e-05,7.88929e-05
30.0,0.000894059,544.987,447.941,449.64,0.000894059,0.000884736
33.0,0.00177708,545.152,453.494,455.186,0.00202495,0.00201563
36.0,0.00288402,545.317,459.044,460.728,0.00288402,0.0028747
39.0,0.00267505,545.482,464.591,466.268,0.00267505,0.00266573
42.0,0.00195262,545.647,470.134,471.804,0.00207051,0.00206119
45.0,0.00207046,545.812,475.674,477.337,0.00207051,0.00206119
48.0,0.00424881,545.977,481.21,482.866,0.0033469,0.00333758
51.0,0.000969811,546.142,486.743,488.392,0.00202023,0.00201091
54.0,0.00139272,546.307,492.273,493.915,0.00139272,0.0013834
57.0,0.00185683,546.472,497.8,499.434,0.00124048,0.00123116
60.0,0.00109026,546.637,503.323,504.95,0.00115052,0.0011412
63.0,0.000253694,546.802,508.843,510.463,0.00108627,0.00107695
66.0,0.0020199,546.967,514.359,515.972,0.0020199,0.00201058
69.0,0.00353375,547.132,519.872,521.478,0.00300673,0.00299741
72.0,0.00241622,547.297,525.382,526.981,0.00232307,0.00231375
75.0,0.0025315,547.462,530.888,532.48,0.00222449,0.00221517
78.0,0.000431428,547.627,536.392,537.976,0.00153367,0.00152435
81.0,0.00309513,547.792,541.891,543.469,0.00252489,0.00251557
84.0,0.00191157,547.957,547.388,548.958,0.00228416,0.00227484
87.0,0.00219694,548.122,552.881,554.444,0.00241592,0.0024066
90.0,0.00323445,548.287,558.371,559.927,0.00266306,0.00265374
93.0,0.00192253,548.452,563.858,565.407,0.00192253,0.00191321
96.0,0.00149619,548.617,569.341,570.883,0.00141851,0.00140919
99.0,0.0012695,548.782,574.821,576.356,0.0012695,0.00126018
102.0,0.000257265,548.947,580.298,581.826,0.00111595,0.00110663
105.0,0.00415256,549.112,585.771,587.292,0.00243008,0.00242076
108.0,0.0,549.277,591.241,592.755,0.000259417,0.000250098
111.0,0.00104078,549.442,596.708,598.215,0.000269953,0.000260634
114.0,0.000487798,549.607,602.172,603.671,0.000831312,0.000821993
117.0,0.00261664,549.772,607.632,609.125,0.00155304,0.00154372
120.0,0.00124497,549.937,613.089,614.575,0.00155304,0.00154372
123.0,0.00211143,550.102,618.543,620.021,0.00211143,0.00210211
126.0,0.00181815,550.267,623.993,625.465,0.00181815,0.00180883
129.0,0.00171828,550.432,629.44,630.905,0.00139936,0.00139004
132.0,0.0,550.597,634.884,636.342,0.000901803,0.000892485
135.0,0.00113575,550.762,640.325,641.776,0.000857871,0.000848553
138.0,0.00110944,550.927,645.762,647.206,0.000937433,0.000928115
141.0,0.000770401,551.092,651.197,652.633,0.000971636,0.000962319
144.0,0.00168516,551.257,656.627,658.057,0.0015971,0.00158778
147.0,0.00112942,551.422,662.055,663.478,0.00112942,0.0011201
150.0,0.00141349,551.587,667.48,668.895,0.00141349,0.00140417
153.0,0.000336532,551.752,672.901,674.309,0.000987168,0.000977851
156.0,0.00157054,551.917,678.319,679.72,0.000821792,0.000812475
159.0,0.00119727,552.082,683.733,685.128,0.000754254,0.000744937
162.0,0.000942007,552.247,689.145,690.533,0.000754254,0.000744937
165.0,0.000107087,552.412,694.553,695.934,0.000848411,0.000839095
168.0,0.00209275,552.577,699.958,701.332,0.00209275,0.00208343
171.0,0.00174637,552.742,705.36,706.727,0.00193454,0.00192522
174.0,0.00229587,552.907,710.758,712.118,0.00193454,0.00192522
177.0,0.000403955,553.072,716.154,717.507,0.00064667,0.000637354
180.0,0.00095022,553.237,721.546,722.892,0.00064667,0.000637354
183.0,0.0,553.402,726.935,728.274,7.71039e-05,6.77882e-05
186.0,0.000837816,553.567,732.32,733.652,0.000837816,0.000828501
189.0,0.00161319,553.732,737.703,739.028,0.00161319,0.00160387
192.0,0.00125385,553.897,743.082,744.4,0.00077248,0.000763165
195.0,0.000336426,554.062,748.458,749.769,0.000760845,0.000751531
198.0,0.00120393,554.227,753.831,755.135,0.00113462,0.00112531
201.0,0.00184909,554.392,759.201,760.498,0.00181916,0.00180985
204.0,0.00103899,554.557,764.567,765.858,0.00103899,0.00102968
207.0,0.000343176,554.722,769.93,771.214,0.000586994,0.000577681
210.0,0.00155818,554.887,775.29,776.567,0.00155818,0.00154887
213.0,0.00140937,555.052,780.647,781.917,0.00189741,0.0018881
216.0,0.00307689,555.217,786.001,787.264,0.00307689,0.00306758
219.0,0.00184052,555.382,791.352,792.608,0.00234353,0.00233422
222.0,0.00247051,555.546,796.699,797.948,0.00234353,0.00233422
225.0,0.00381152,555.711,802.043,803.285,0.00347622,0.00346691
228.0,0.0031425,555.876,807.384,808.62,0.00319131,0.003182
231.0,0.00234488,556.041,812.722,813.951,0.00252476,0.00251545
234.0,0.00525235,556.206,818.057,819.278,0.0043957,0.00438639
237.0,0.00411777,556.371,823.388,824.603,0.00411777,0.00410846
240.0,0.00344566,556.536,828.716,829.924,0.00413257,0.00412326
243.0,0.00559129,556.701,834.042,835.243,0.00547382,0.00546451
246.0,0.00653787,556.866,839.364,840.558,0.00620831,0.006199
249.0,0.00677873,557.031,844.682,845.87,0.00677873,0.00676942
252.0,0.00704979,557.196,849.998,851.179,0.00707835,0.00706904
255.0,0.00777958,557.361,855.311,856.485,0.00717079,0.00716148
258.0,0.00569192,557.526,860.62,861.787,0.00625328,0.00624397
261.0,0.00849264,557.691,865.927,867.087,0.00838705,0.00837774
264.0,0.00771117,557.856,871.23,872.383,0.00771624,0.00770693
267.0,0.00824255,558.021,876.53,877.676,0.00810216,0.00809285
270.0,0.00833539,558.186,881.827,882.966,0.00833539,0.00832608
273.0,0.00728218,558.351,887.12,888.253,0.00728218,0.00727287
276.0,0.00547541,558.516,892.411,893.537,0.00569552,0.00568621
279.0,0.00608884,558.681,897.698,898.818,0.00608884,0.00607953
282.0,0.00742875,558.846,902.983,904.095,0.0072721,0.00726279
285.0,0.00643841,559.011,908.264,909.37,0.00643841,0.0064291
288.0,0.00518192,559.176,913.542,914.641,0.00518192,0.00517262
291.0,0.00494775,559.341,918.817,919.909,0.00494775,0.00493845
294.0,0.00544711,559.506,924.089,925.174,0.00535258,0.00534328
297.0,0.00553283,559.671,929.358,930.436,0.00553283,0.00552353
300.0,0.00490169,559.836,934.624,935.695,0.00490169,0.00489239
303.0,0.00394,560.001,939.886,940.951,0.00394,0.0039307
306.0,0.00428255,560.166,945.146,946.204,0.00428255,0.00427325
309.0,0.00372791,560.331,950.402,951.454,0.00372791,0.00371861
312.0,0.00438697,560.496,955.656,956.7,0.00324856,0.00323926
315.0,0.00117344,560.661,960.906,961.944,0.00183906,0.00182976
318.0,0.00162396,560.826,966.153,967.184,0.00162396,0.00161466
321.0,0.00188559,560.991,971.397,972.421,0.00228389,0.00227459
324.0,0.00215479,561.156,976.638,977.655,0.00215479,0.00214549
327.0,0.000911677,561.321,981.876,982.887,0.00106359,0.00105429
330.0,0.00142077,561.486,987.111,988.115,0.00106359,0.00105429
333.0,0.0,561.651,992.342,993.34,0.0,-9.30028e-06
336.0,0.000585548,561.816,997.571,998.562,0.000585548,0.000576248
339.0,0.00148952,561.981,1002.8,1003.78,0.000985967,0.000976667
342.0,0.00146264,562.146,1008.02,1009,0.00146264,0.00145334
345.0,0.0015111,562.311,1013.24,1014.21,0.00151176,0.00150246
348.0,0.00111555,562.476,1018.45,1019.42,0.00118572,0.00117642
351.0,0.00269888,562.641,1023.67,1024.63,0.00243331,0.00242401
354.0,0.00170736,562.806,1028.88,1029.83,0.00170736,0.00169806
357.0,0.00170298,562.971,1034.09,1035.03,0.00121362,0.00120432
360.0,0.00200047,563.136,1039.29,1040.23,0.00200047,0.00199117
363.0,0.00222992,563.301,1044.49,1045.42,0.00208308,0.00207378
366.0,0.00271923,563.466,1049.69,1050.61,0.00271923,0.00270993
369.0,0.00298301,563.631,1054.88,1055.8,0.00336621,0.00335691
372.0,0.00573817,563.796,1060.08,1060.99,0.00573817,0.00572887
375.0,0.0110494,563.961,1065.27,1066.17,0.0110494,0.0110401
378.0,0.0482218,564.126,1070.45,1071.35,0.0482218,0.0482125
381.0,0.167761,564.291,1075.63,1076.52,0.167761,0.167752
384.0,0.284563,564.456,1080.81,1081.7,0.284563,0.284554
387.0,0.275096,564.621,1085.99,1086.87,0.275096,0.275087
390.0,0.203376,564.786,1091.16,1092.03,0.203376,0.203367
393.0,0.0567158,564.951,1096.34,1097.2,0.0567158,0.0567065
396.0,0.00848841,565.116,1101.5,1102.36,0.00848841,0.00847911
399.0,0.00393649,565.281,1106.67,1107.52,0.00393649,0.00392719
402.0,0.00242418,565.446,1111.83,1112.67,0.00242418,0.00241488
405.0,0.00195286,565.611,1116.99,1117.82,0.00211865,0.00210936
408.0,0.000863584,565.776,1122.14,1122.97,0.000863584,0.000854289
411.0,0.00124698,565.941,1127.3,1128.12,0.00124698,0.00123769
414.0,0.00108977,566.106,1132.45,1133.26,0.00108977,0.00108048
417.0,0.000370525,566.271,1137.59,1138.4,0.000370525,0.000361231
420.0,0.0023728,566.436,1142.74,1143.54,0.00203882,0.00202953
423.0,0.000723318,566.601,1147.88,1148.67,0.00114408,0.00113479
426.0,0.00130213,566.766,1153.02,1153.81,0.00130213,0.00129284
429.0,0.00173036,566.931,1158.15,1158.93,0.00173036,0.00172107
432.0,0.00246992,567.096,1163.28,1164.06,0.00220307,0.00219378
435.0,0.00226413,567.261,1168.41,1169.18,0.00220307,0.00219378
438.0,0.0,567.426,1173.54,1174.3,0.00049109,0.000481797
441.0,0.00138692,567.591,1178.66,1179.42,0.000946444,0.000937151
444.0,0.000538212,567.756,1183.78,1184.53,0.000638119,0.000628826
447.0,0.00168932,567.921,1188.9,1189.64,0.00168932,0.00168003
450.0,0.00146202,568.086,1194.01,1194.75,0.00227815,0.00226886
453.0,0.0023703,568.251,1199.12,1199.85,0.00227815,0.00226886
456.0,0.00256715,568.416,1204.23,1204.95,0.00294091,0.00293162
459.0,0.00379768,568.58,1209.33,1210.05,0.00339909,0.0033898
462.0,0.00287135,568.745,1214.44,1215.15,0.00287135,0.00286206
465.0,0.00212748,568.91,1219.53,1220.24,0.00238489,0.0023756
468.0,0.00295541,569.075,1224.63,1225.33,0.00264788,0.00263859
471.0,0.00244294,569.24,1229.72,1230.42,0.00244294,0.00243365
474.0,0.00141467,569.405,1234.81,1235.5,0.00141467,0.00140538
477.0,0.00249344,569.57,1239.9,1240.58,0.00198714,0.00197785
480.0,0.00133424,569.735,1244.99,1245.66,0.00165853,0.00164924
483.0,0.0023225,569.9,1250.07,1250.73,0.00165853,0.00164924
486.0,0.000845102,570.065,1255.14,1255.8,0.00134474,0.00133545
489.0,0.000668517,570.23,1260.22,1260.87,0.000668517,0.000659226
492.0,0.00104047,570.395,1265.29,1265.94,0.00104047,0.00103118
495.0,0.00350637,570.56,1270.36,1271,0.00298468,0.00297539
498.0,0.00227064,570.725,1275.43,1276.06,0.00247039,0.0024611
501.0,0.00134499,570.89,1280.49,1281.12,0.00193729,0.001928
504.0,0.000904313,571.055,1285.55,1286.17,0.000904313,0.000895022
507.0,0.00118554,571.22,1290.61,1291.22,0.00118554,0.00117625
510.0,0.000778458,571.385,1295.67,1296.27,0.00145323,0.00144394
513.0,0.00193333,571.55,1300.72,1301.32,0.00193333,0.00192404
516.0,0.00182869,571.715,1305.77,1306.36,0.00182869,0.0018194
519.0,0.00284951,571.88,1310.81,1311.4,0.00252641,0.00251712
522.0,0.00229632,572.045,1315.86,1316.44,0.00214717,0.00213788
525.0,0.00185397,572.21,1320.9,1321.47,0.00185397,0.00184468
528.0,0.00298315,572.375,1325.94,1326.5,0.00222973,0.00222044
531.0,0.0,572.54,1330.97,1331.53,0.00125092,0.00124163
534.0,0.00271135,572.705,1336,1336.56,0.00271135,0.00270206
537.0,0.00285113,572.87,1341.03,1341.58,0.00301233,0.00300304
540.0,0.00312264,573.035,1346.06,1346.6,0.00293013,0.00292084
543.0,0.00309949,573.2,1351.08,1351.61,0.00293013,0.00292084
546.0,0.00325442,573.365,1356.1,1356.63,0.00325442,0.00324513
549.0,0.00239975,573.53,1361.12,1361.64,0.00311257,0.00310328
552.0,0.00375331,573.695,1366.13,1366.65,0.00311257,0.00310328
555.0,0.00160012,573.86,1371.14,1371.65,0.00276805,0.00275876
558.0,0.00273373,574.025,1376.15,1376.65,0.00273373,0.00272444
561.0,0.00118855,574.19,1381.16,1381.65,0.00118855,0.00117926
564.0,0.00284723,574.355,1386.16,1386.65,0.00284723,0.00283794
567.0,0.00422896,574.52,1391.16,1391.64,0.00345604,0.00344675
570.0,0.00131954,574.685,1396.16,1396.63,0.00183276,0.00182347
573.0,0.00209493,574.85,1401.15,1401.62,0.00209493,0.00208564
576.0,0.00274978,575.015,1406.14,1406.61,0.00274978,0.00274049
579.0,0.00374296,575.18,1411.13,1411.59,0.00351771,0.00350842
582.0,0.00309417,575.345,1416.12,1416.57,0.00340458,0.00339529
585.0,0.00579062,575.51,1421.1,1421.54,0.00416786,0.00415857
588.0,0.00385158,575.675,1426.08,1426.52,0.00397884,0.00396955
591.0,0.00585633,575.84,1431.06,1431.49,0.00585633,0.00584704
594.0,0.00557839,576.005,1436.03,1436.46,0.00557839,0.0055691
597.0,0.00573193,576.17,1441,1441.42,0.00497851,0.00496922
600.0,0.00393449,576.335,1445.97,1446.38,0.00413384,0.00412455
603.0,0.00159469,576.5,1450.94,1451.34,0.00204693,0.00203764
606.0,0.00117089,576.665,1455.9,1456.3,0.00204693,0.00203764
609.0,0.00323258,576.83,1460.86,1461.25,0.00321101,0.00320172
612.0,0.00159393,576.995,1465.82,1466.2,0.00298332,0.00297403
615.0,0.00297019,577.16,1470.77,1471.15,0.00232282,0.00231353
618.0,0.00302173,577.325,1475.72,1476.1,0.00302173,0.00301244
621.0,0.00329531,577.49,1480.67,1481.04,0.00333403,0.00332474
624.0,0.00266271,577.655,1485.62,1485.98,0.0027272,0.00271791
627.0,0.00242042,577.82,1490.56,1490.91,0.00235244,0.00234315
630.0,0.00324505,577.985,1495.5,1495.85,0.00324505,0.00323576
633.0,0.00430678,578.15,1500.44,1500.78,0.00430678,0.00429749
636.0,0.00259281,578.315,1505.37,1505.71,0.00320038,0.00319109
639.0,0.00222929,578.48,1510.3,1510.63,0.00283056,0.00282127
642.0,0.00241137,578.645,1515.23,1515.55,0.00241137,0.00240208
645.0,0.00392775,578.81,1520.16,1520.47,0.00336753,0.00335824
648.0,0.00203453,578.975,1525.08,1525.39,0.00220983,0.00220054
651.0,0.00212139,579.14,1530,1530.31,0.00220983,0.00220054
654.0,0.00357714,579.305,1534.92,1535.22,0.00357714,0.00356785
657.0,0.00316983,579.47,1539.83,1540.13,0.00381096,0.00380167
660.0,0.00450318,579.635,1544.75,1545.03,0.00423341,0.00422412
663.0,0.00452182,579.8,1549.65,1549.93,0.00422638,0.00421709
666.0,0.00307183,579.965,1554.56,1554.83,0.00332791,0.00331862
669.0,0.00303837,580.13,1559.47,1559.73,0.00332791,0.00331862
672.0,0.00515712,580.295,1564.37,1564.63,0.00415188,0.00414259
675.0,0.00354664,580.46,1569.26,1569.52,0.00391486,0.00390557
678.0,0.00393687,580.625,1574.16,1574.41,0.00393687,0.00392758
681.0,0.00460947,580.79,1579.05,1579.29,0.00401207,0.00400278
684.0,0.00241633,580.955,1583.94,1584.18,0.00283044,0.00282115
687.0,0.003027,581.12,1588.83,1589.06,0.00289736,0.00288807
690.0,0.00229166,581.285,1593.71,1593.94,0.00298337,0.00297408
693.0,0.00356347,581.45,1598.59,1598.81,0.00298337,0.00297408
696.0,0.00370336,581.614,1603.47,1603.68,0.00370336,0.00369407
699.0,0.00321351,581.779,1608.35,1608.55,0.00321351,0.00320422
702.0,0.00221919,581.944,1613.22,1613.42,0.00268709,0.0026778
705.0,0.00411126,582.109,1618.09,1618.28,0.00411126,0.00410197
708.0,0.00496448,582.274,1622.96,1623.15,0.00484831,0.00483902
711.0,0.0043847,582.439,1627.83,1628,0.00386599,0.0038567
714.0,0.00247101,582.604,1632.69,1632.86,0.00299583,0.00298654
717.0,0.00343332,582.769,1637.55,1637.71,0.00299583,0.00298654
720.0,0.000571023,582.934,1642.4,1642.56,0.00129942,0.00129013
723.0,0.00131588,583.099,1647.26,1647.41,0.00141693,0.00140764
726.0,0.00347942,583.264,1652.11,1652.26,0.00244147,0.00243218
729.0,0.00159059,583.429,1656.96,1657.1,0.00250283,0.00249354
732.0,0.00414569,583.594,1661.8,1661.94,0.00299112,0.00298183
735.0,0.00246173,583.759,1666.65,1666.77,0.00246173,0.00245244
738.0,0.0025818,583.924,1671.49,1671.61,0.00266201,0.00265272
741.0,0.00249493,584.089,1676.32,1676.44,0.0028663,0.00285701
744.0,0.00272632,584.254,1681.16,1681.27,0.00272632,0.00271703
747.0,0.00246772,584.419,1685.99,1686.09,0.00246772,0.00245843
750.0,0.00434457,584.584,1690.82,1690.92,0.00366785,0.00365856
753.0,0.00338551,584.749,1695.65,1695.74,0.00338551,0.00337622
756.0,0.00412378,584.914,1700.47,1700.55,0.0038912,0.00388191
759.0,0.0036949,585.079,1705.29,1705.37,0.00375618,0.00374689
762.0,0.00298775,585.244,1710.11,1710.18,0.00327362,0.00326433
765.0,0.00255203,585.409,1714.92,1714.99,0.00255203,0.00254274
768.0,0.00415278,585.574,1719.74,1719.8,0.00415278,0.00414349
771.0,0.00302746,585.739,1724.55,1724.6,0.00338335,0.00337406
774.0,0.00454946,585.904,1729.35,1729.4,0.00415476,0.00414547
777.0,0.00512766,586.069,1734.16,1734.2,0.00512766,0.00511837
780.0,0.00584736,586.234,1738.96,1739,0.00615633,0.00614704
783.0,0.00959858,586.399,1743.76,1743.79,0.00959858,0.00958929
786.0,0.0113121,586.564,1748.56,1748.58,0.0102632,0.0102539
789.0,0.011223,586.729,1753.35,1753.37,0.0102632,0.0102539
792.0,0.00691562,586.894,1758.14,1758.15,0.00691562,0.00690633
795.0,0.00462678,587.059,1762.93,1762.94,0.00462678,0.00461749
798.0,0.00122644,587.224,1767.72,1767.72,0.00301291,0.00300362
801.0,0.00304639,587.389,1772.5,1772.49,0.00301291,0.00300362
804.0,0.0025826,587.554,1777.28,1777.27,0.00233301,0.00232372
807.0,0.00107138,587.719,1782.06,1782.04,0.00107138,0.00106209
810.0,0.00110017,587.884,1786.83,1786.81,0.000816176,0.000806891
813.0,0.0013959,588.049,1791.61,1791.57,0.0013959,0.00138661
816.0,0.00184246,588.214,1796.38,1796.34,0.00184246,0.00183317
819.0,0.00143227,588.379,1801.14,1801.1,0.00139061,0.00138133
822.0,0.0022243,588.544,1805.91,1805.86,0.00198581,0.00197653
825.0,0.00186171,588.709,1810.67,1810.61,0.00275304,0.00274376
828.0,0.00279023,588.874,1815.43,1815.37,0.00279023,0.00278095
831.0,0.00109493,589.039,1820.19,1820.12,0.00135035,0.00134107
834.0,0.00211402,589.204,1824.94,1824.86,0.00211402,0.00210474
837.0,0.0027998,589.369,1829.69,1829.61,0.00275258,0.0027433
840.0,0.00105032,589.534,1834.44,1834.35,0.00151925,0.00150997
843.0,0.00272828,589.699,1839.18,1839.09,0.00272828,0.002719
846.0,0.00335711,589.864,1843.93,1843.83,0.00335711,0.00334783
849.0,0.00326037,590.029,1848.67,1848.56,0.00326037,0.00325109
852.0,0.00305885,590.194,1853.41,1853.29,0.00305885,0.00304957
855.0,0.00347934,590.359,1858.14,1858.02,0.00347934,0.00347006
858.0,0.00332022,590.524,1862.87,1862.75,0.00318092,0.00317164
861.0,0.00449455,590.689,1867.6,1867.47,0.00439848,0.0043892
864.0,0.00439966,590.854,1872.33,1872.2,0.00439966,0.00439038
867.0,0.00445298,591.019,1877.06,1876.91,0.00424274,0.00423346
870.0,0.00389685,591.184,1881.78,1881.63,0.00389685,0.00388757
873.0,0.00375046,591.349,1886.5,1886.34,0.00395819,0.00394891
876.0,0.00432905,591.514,1891.21,1891.05,0.00410557,0.00409629
879.0,0.00347685,591.679,1895.93,1895.76,0.00349343,0.00348415
882.0,0.00294484,591.844,1900.64,1900.47,0.00330034,0.00329106
885.0,0.00418013,592.009,1905.35,1905.17,0.00408151,0.00407223
888.0,0.0039819,592.174,1910.05,1909.87,0.0039819,0.00397262
891.0,0.00287464,592.339,1914.76,1914.57,0.00287464,0.00286536
894.0,0.00262617,592.504,1919.46,1919.26,0.00262617,0.00261689
897.0,0.00331453,592.669,1924.16,1923.96,0.00334701,0.00333773
900.0,0.00381325,592.834,1928.85,1928.64,0.00335584,0.00334656
903.0,0.00262561,592.999,1933.55,1933.33,0.00368443,0.00367515
906.0,0.00305247,593.164,1938.24,1938.02,0.0032161,0.00320682
909.0,0.00356351,593.329,1942.93,1942.7,0.0029617,0.00295242
912.0,0.0020481,593.494,1947.61,1947.38,0.00212613,0.00211685
915.0,0.00230752,593.659,1952.29,1952.05,0.00230752,0.00229824
918.0,0.00302632,593.824,1956.97,1956.73,0.00302632,0.00301704
921.0,0.00356065,593.989,1961.65,1961.4,0.00361597,0.00360669
924.0,0.00303773,594.154,1966.33,1966.07,0.00302189,0.00301261
927.0,0.000618251,594.319,1971,1970.73,0.00120016,0.00119088
930.0,0.0028807,594.484,1975.67,1975.4,0.0028807,0.00287142
933.0,0.00365474,594.648,1980.33,1980.06,0.00365474,0.00364546
936.0,0.00249018,594.813,1985,1984.72,0.00246626,0.00245698
939.0,0.00506617,594.978,1989.66,1989.37,0.00500492,0.00499564
942.0,0.00252042,595.143,1994.32,1994.03,0.00252042,0.00251114
945.0,0.00213111,595.308,1998.98,1998.68,0.00223637,0.00222709
948.0,0.00180407,595.473,2003.63,2003.33,0.00225894,0.00224966
951.0,0.00452287,595.638,2008.28,2007.97,0.00389021,0.00388093
954.0,0.00114392,595.803,2012.93,2012.62,0.00164298,0.0016337
957.0,0.00135012,595.968,2017.58,2017.26,0.00164298,0.0016337
960.0,0.00230507,596.133,2022.22,2021.89,0.00230507,0.00229579
963.0,0.00452263,596.298,2026.86,2026.53,0.0035958,0.00358652
966.0,0.00240863,596.463,2031.5,2031.16,0.0035958,0.00358652
969.0,0.00376262,596.628,2036.14,2035.79,0.00362361,0.00361433
972.0,0.00396348,596.793,2040.77,2040.42,0.00396348,0.0039542
975.0,0.00348916,596.958,2045.4,2045.05,0.00348916,0.00347988
978.0,0.00225557,597.123,2050.03,2049.67,0.00243156,0.00242228
981.0,0.00285846,597.288,2054.66,2054.29,0.00294154,0.00293226
984.0,0.00257712,597.453,2059.28,2058.91,0.00257712,0.00256784
987.0,0.00204414,597.618,2063.9,2063.52,0.00204414,0.00203486
990.0,0.00258506,597.783,2068.52,2068.13,0.00237576,0.00236648
993.0,0.00128188,597.948,2073.14,2072.74,0.00214915,0.00213987
996.0,0.00433265,598.113,2077.75,2077.35,0.00289744,0.00288816
999.0,0.00238497,598.278,2082.36,2081.95,0.00256647,0.00255719
1002.0,0.00350199,598.443,2086.97,2086.56,0.00272422,0.00271494
1005.0,0.000593435,598.608,2091.57,2091.16,0.000593435,0.000584153
1008.0,0.00144663,598.773,2096.18,2095.75,0.00122548,0.0012162
1011.0,0.00387854,598.938,2100.78,2100.35,0.00307733,0.00306805
1014.0,0.00230473,599.103,2105.38,2104.94,0.00230473,0.00229545
1017.0,0.00198191,599.268,2109.97,2109.53,0.00213516,0.00212588
1020.0,0.00337828,599.433,2114.56,2114.12,0.00328607,0.00327679
1023.0,0.00250176,599.598,2119.15,2118.7,0.00265637,0.00264709
1026.0,0.00198466,599.763,2123.74,2123.28,0.00265637,0.00264709
1029.0,0.00320615,599.928,2128.33,2127.86,0.00288665,0.00287737
1032.0,0.00283423,600.093,2132.91,2132.44,0.00266632,0.00265704
1035.0,0.0024862,600.258,2137.49,2137.01,0.0024862,0.00247692
1038.0,0.00131262,600.423,2142.07,2141.59,0.00225859,0.00224931
1041.0,0.00324041,600.588,2146.64,2146.15,0.00310304,0.00309376
1044.0,0.00296901,600.753,2151.22,2150.72,0.00296901,0.00295973
1047.0,0.00135579,600.918,2155.79,2155.29,0.00135579,0.00134651
1050.0,0.000940588,601.083,2160.35,2159.85,0.00163038,0.0016211
1053.0,0.00186714,601.248,2164.92,2164.41,0.00163038,0.0016211
1056.0,0.00124071,601.413,2169.48,2168.96,0.00160349,0.00159421
1059.0,0.00285489,601.578,2174.04,2173.52,0.00189908,0.0018898
1062.0,0.00172641,601.743,2178.6,2178.07,0.00157543,0.00156615
1065.0,0.0008287,601.908,2183.16,2182.62,0.00157543,0.00156615
1068.0,0.00270273,602.073,2187.71,2187.17,0.00172969,0.00172041
1071.0,0.00254301,602.238,2192.26,2191.71,0.00254301,0.00253373
1074.0,0.00256544,602.403,2196.81,2196.25,0.00256544,0.00255616
1077.0,0.000942126,602.568,2201.35,2200.79,0.00112033,0.00111105
1080.0,0.00134308,602.733,2205.89,2205.33,0.00112033,0.00111105
1083.0,0.0022449,602.898,2210.43,2209.86,0.0022449,0.00223562
1086.0,0.00423788,603.063,2214.97,2214.4,0.00281254,0.00280326
1089.0,0.00143906,603.228,2219.51,2218.92,0.00187138,0.0018621
1092.0,0.00208979,603.393,2224.04,2223.45,0.00208979,0.00208051
1095.0,0.00236076,603.558,2228.57,2227.98,0.00284105,0.00283177
1098.0,0.00366908,603.723,2233.1,2232.5,0.00323368,0.0032244
1101.0,0.00445675,603.888,2237.62,2237.02,0.00392065,0.00391137
1104.0,0.00307749,604.053,2242.15,2241.54,0.00307749,0.00306821
1107.0,8.56436e-05,604.218,2246.67,2246.05,0.00178697,0.00177769
1110.0,0.00301542,604.383,2251.19,2250.56,0.00277395,0.00276467
1113.0,0.00445243,604.548,2255.7,2255.07,0.00445243,0.00444315
1116.0,0.00313602,604.713,2260.21,2259.58,0.00329674,0.00328746
1119.0,0.00295749,604.878,2264.72,2264.08,0.00295749,0.00294821
1122.0,0.00231515,605.043,2269.23,2268.59,0.00231515,0.00230587
1125.0,0.00245763,605.208,2273.74,2273.09,0.00248455,0.00247527
1128.0,0.00177109,605.373,2278.24,2277.58,0.00209379,0.00208451
1131.0,0.00210944,605.538,2282.74,2282.08,0.00210944,0.00210016
1134.0,0.00277148,605.703,2287.24,2286.57,0.00220839,0.00219911
1137.0,0.00239337,605.868,2291.74,2291.06,0.00239337,0.00238409
1140.0,0.00198494,606.033,2296.23,2295.55,0.00292413,0.00291485
1143.0,0.00312976,606.198,2300.72,2300.03,0.00312976,0.00312048
1146.0,0.00335297,606.363,2305.21,2304.52,0.00335297,0.00334369
1149.0,0.00143164,606.528,2309.7,2309,0.00143164,0.00142236
1152.0,0.00117975,606.693,2314.18,2313.47,0.00117975,0.00117047
1155.0,0.00347455,606.858,2318.66,2317.95,0.00347455,0.00346527
1158.0,0.00376423,607.023,2323.14,2322.42,0.00376423,0.00375496
1161.0,0.00185957,607.188,2327.62,2326.89,0.00185957,0.0018503
1164.0,0.00207861,607.353,2332.09,2331.36,0.00175379,0.00174452
1167.0,0.00210464,607.518,2336.56,2335.83,0.00204764,0.00203837
1170.0,0.00161205,607.682,2341.03,2340.29,0.00217943,0.00217016
1173.0,0.00426926,607.847,2345.5,2344.75,0.00291113,0.00290186
1176.0,0.00243827,608.012,2349.96,2349.21,0.00273346,0.00272419
1179.0,0.00222198,608.177,2354.42,2353.67,0.00284067,0.0028314
1182.0,0.00455628,608.342,2358.88,2358.12,0.00359879,0.00358952
1185.0,0.00085728,608.507,2363.34,2362.57,0.00237866,0.00236939
1188.0,0.00206956,608.672,2367.79,2367.02,0.00203222,0.00202295
1191.0,0.00205275,608.837,2372.25,2371.47,0.00205275,0.00204348
1194.0,0.00439147,609.002,2376.7,2375.91,0.00357896,0.00356969
1197.0,0.00261566,609.167,2381.14,2380.35,0.0029079,0.00289863
1200.0,0.00233485,609.332,2385.59,2384.79,0.00233485,0.00232558
1203.0,0.00189053,609.497,2390.03,2389.23,0.00250043,0.00249116
1206.0,0.0025948,609.662,2394.47,2393.66,0.00266747,0.0026582
1209.0,0.0024613,609.827,2398.91,2398.09,0.0024613,0.00245203
1212.0,0.00127699,609.992,2403.34,2402.52,0.00185278,0.00184351
1215.0,0.00208945,610.157,2407.78,2406.95,0.00138467,0.0013754
1218.0,0.0,610.322,2412.21,2411.38,0.000201247,0.000191978
1221.0,0.00348527,610.487,2416.63,2415.8,0.00300392,0.00299465
1224.0,0.00228881,610.652,2421.06,2420.22,0.00241639,0.00240712
1227.0,0.00224452,610.817,2425.48,2424.64,0.0020279,0.00201863
1230.0,0.0013819,610.982,2429.9,2429.05,0.0012425,0.00123323
1233.0,0.00140372,611.147,2434.32,2433.46,0.00120723,0.00119796
1236.0,0.00192092,611.312,2438.74,2437.87,0.00192092,0.00191165
1239.0,0.00226303,611.477,2443.15,2442.28,0.00239523,0.00238596
1242.0,0.00411371,611.642,2447.56,2446.69,0.00293674,0.00292747
1245.0,0.00135186,611.807,2451.97,2451.09,0.00293674,0.00292747
1248.0,0.00409131,611.972,2456.38,2455.49,0.00298779,0.00297852
1251.0,0.0017037,612.137,2460.78,2459.89,0.0017037,0.00169443
1254.0,0.00265406,612.302,2465.19,2464.29,0.00265406,0.00264479
1257.0,0.00259224,612.467,2469.59,2468.68,0.00259224,0.00258297
1260.0,0.00144726,612.632,2473.98,2473.07,0.00180449,0.00179522
1263.0,0.00196832,612.797,2478.38,2477.46,0.00189056,0.00188129
1266.0,0.00201386,612.962,2482.77,2481.85,0.00201386,0.00200459
1269.0,0.00320754,613.127,2487.16,2486.23,0.00320754,0.00319827
1272.0,0.00271918,613.292,2491.55,2490.61,0.00271918,0.00270991
1275.0,0.0,613.457,2495.93,2494.99,0.000513011,0.000503746
1278.0,0.00173966,613.622,2500.32,2499.37,0.00173966,0.0017304
1281.0,0.00256315,613.787,2504.7,2503.75,0.00249253,0.00248327
1284.0,0.000921715,613.952,2509.07,2508.12,0.00133308,0.00132382
1287.0,0.00296977,614.117,2513.45,2512.49,0.00208549,0.00207623
1290.0,0.00119752,614.282,2517.82,2516.86,0.00186216,0.0018529
1293.0,0.00330807,614.447,2522.19,2521.22,0.00236637,0.00235711
1296.0,0.00206646,614.612,2526.56,2525.59,0.00206646,0.0020572
1299.0,0.00291621,614.777,2530.93,2529.95,0.00195709,0.00194783
1302.0,0.000455217,614.942,2535.29,2534.3,0.00157514,0.00156588
1305.0,0.00306877,615.107,2539.66,2538.66,0.00186278,0.00185352
1308.0,0.000743892,615.272,2544.02,2543.01,0.000743892,0.000734629
1311.0,0.00108661,615.437,2548.37,2547.37,0.0010564,0.00104714
1314.0,0.000995507,615.602,2552.73,2551.72,0.00119337,0.00118411
1317.0,0.00221798,615.767,2557.08,2556.06,0.00221798,0.00220872
1320.0,0.00163685,615.932,2561.43,2560.41,0.00163685,0.00162759
1323.0,0.00149024,616.097,2565.78,2564.75,0.00149024,0.00148098
1326.0,0.00234259,616.262,2570.12,2569.09,0.00155166,0.0015424
1329.0,0.00161003,616.427,2574.47,2573.43,0.00142411,0.00141485
1332.0,3.76399e-05,616.592,2578.81,2577.76,3.76399e-05,2.83788e-05
1335.0,0.0,616.757,2583.15,2582.09,1.82675e-06,-7.43407e-06
1338.0,0.00146383,616.922,2587.48,2586.42,0.00146383,0.00145457
1341.0,0.00167976,617.087,2591.82,2590.75,0.00167976,0.0016705
1344.0,0.000244097,617.252,2596.15,2595.08,0.000244097,0.000234837
1347.0,0.00201406,617.417,2600.48,2599.4,0.00160855,0.00159929
1350.0,0.0025418,617.582,2604.8,2603.72,0.0021506,0.00214134
1353.0,0.0004289,617.747,2609.13,2608.04,0.000987796,0.000978536
1356.0,0.00065478,617.912,2613.45,2612.36,0.00065478,0.000645521
1359.0,0.0013152,618.077,2617.77,2616.67,0.000544491,0.000535232
1362.0,0.000376888,618.242,2622.09,2620.99,0.000376888,0.000367629
1365.0,0.0,618.407,2626.4,2625.3,0.000170052,0.000160793
1368.0,0.00137244,618.572,2630.72,2629.6,0.00120438,0.00119512
1371.0,0.00174593,618.737,2635.03,2633.91,0.00115062,0.00114136
1374.0,0.000633905,618.902,2639.34,2638.21,0.000849173,0.000839915
1377.0,0.00209635,619.067,2643.64,2642.51,0.00142885,0.00141959
1380.0,0.000494244,619.232,2647.95,2646.81,0.00115556,0.0011463
1383.0,1.15694e-05,619.397,2652.25,2651.11,0.000103744,9.44866e-05
1386.0,0.000948801,619.562,2656.55,2655.4,0.000948801,0.000939544
1389.0,0.00260068,619.727,2660.84,2659.69,0.00195181,0.00194255
1392.0,0.000600357,619.892,2665.14,2663.98,0.000600357,0.0005911
1395.0,0.00124362,620.057,2669.43,2668.27,0.000660119,0.000650862
1398.0,0.00039131,620.222,2673.72,2672.55,0.000660119,0.000650863
1401.0,0.000316841,620.387,2678.01,2676.84,0.000621914,0.000612658
1404.0,0.0,620.551,2682.29,2681.12,0.000275229,0.000265973
1407.0,0.000188764,620.716,2686.58,2685.39,0.000188764,0.000179508
1410.0,0.00060868,620.881,2690.86,2689.67,0.000378826,0.00036957
1413.0,0.0,621.046,2695.14,2693.94,0.000378826,0.00036957
1416.0,0.000975224,621.211,2699.41,2698.21,0.000975224,0.000965969
1419.0,0.00212274,621.376,2703.69,2702.48,0.00211445,0.00210519
1422.0,0.0,621.541,2707.96,2706.75,0.000373742,0.000364487
1425.0,0.000394351,621.706,2712.23,2711.01,0.000459731,0.000450476
1428.0,0.00225728,621.871,2716.5,2715.27,0.00114775,0.00113849
1431.0,0.00273277,622.036,2720.76,2719.53,0.00244124,0.00243198
1434.0,0.000721898,622.201,2725.03,2723.79,0.000721898,0.000712643
1437.0,0.000497702,622.366,2729.29,2728.05,0.000497702,0.000488447
1440.0,0.00135378,622.531,2733.54,2732.3,0.00164162,0.00163237
1443.0,0.00194583,622.696,2737.8,2736.55,0.00177887,0.00176962
1446.0,0.00111433,622.861,2742.05,2740.8,0.000736103,0.000726848
1449.0,0.00027021,623.026,2746.31,2745.04,0.000462293,0.000453038
1452.0,0.000478706,623.191,2750.56,2749.29,0.00053386,0.000524605
1455.0,0.00334739,623.356,2754.8,2753.53,0.00181755,0.0018083
1458.0,0.0,623.521,2759.05,2757.77,0.0007994,0.000790145
1461.0,0.00120885,623.686,2763.29,2762.01,0.0007994,0.000790145
1464.0,0.00085602,623.851,2767.53,2766.24,0.000248914,0.000239659
1467.0,0.000433712,624.016,2771.77,2770.47,0.000708295,0.00069904
1470.0,0.000292604,624.181,2776,2774.7,0.00038179,0.000372535
1473.0,0.0,624.346,2780.24,2778.93,0.00038179,0.000372535
1476.0,0.00192613,624.511,2784.47,2783.16,0.00175742,0.00174816
1479.0,0.00338543,624.676,2788.7,2787.38,0.00209753,0.00208827
1482.0,0.000449994,624.841,2792.93,2791.6,0.000571651,0.000562396
1485.0,0.0,625.006,2797.15,2795.82,0.000313529,0.000304274
1488.0,0.0,625.171,2801.37,2800.04,0.0,-9.25537e-06
1491.0,0.00185212,625.336,2805.59,2804.25,0.00134193,0.00133267
1494.0,0.000813888,625.501,2809.81,2808.47,0.000912443,0.000903187
1497.0,0.000590753,625.666,2814.03,2812.68,0.000386636,0.00037738
1500.0,0.0,625.831,2818.24,2816.89,0.000236487,0.000227231
1503.0,0.000464222,625.996,2822.45,2821.09,0.000236487,0.000227231
1506.0,0.00167246,626.161,2826.66,2825.3,0.000928853,0.000919596
1509.0,0.000210766,626.326,2830.87,2829.5,0.000557764,0.000548507
1512.0,0.000391868,626.491,2835.07,2833.7,0.000383048,0.000373791
1515.0,0.000576873,626.656,2839.27,2837.89,0.00036643,0.000357173
1518.0,0.000285702,626.821,2843.48,2842.09,0.00036643,0.000357173
1521.0,0.00159792,626.986,2847.67,2846.28,0.00159792,0.00158866
1524.0,0.00272108,627.151,2851.87,2850.47,0.00272108,0.00271182
1527.0,0.00180243,627.316,2856.06,2854.66,0.00180243,0.00179317
1530.0,0.000277471,627.481,2860.25,2858.85,0.000726499,0.000717241
1533.0,0.00129142,627.646,2864.44,2863.03,0.0011306,0.00112134
1536.0,0.00214747,627.811,2868.63,2867.21,0.00161993,0.00161067
1539.0,0.0016941,627.976,2872.82,2871.39,0.0016941,0.00168484
1542.0,0.00192146,628.141,2877,2875.57,0.00197081,0.00196155
1545.0,0.00283144,628.306,2881.18,2879.74,0.00244181,0.00243255
1548.0,0.00125295,628.471,2885.36,2883.92,0.00125295,0.00124369
1551.0,0.0,628.636,2889.53,2888.09,0.000710641,0.000701383
1554.0,0.00108081,628.801,2893.71,2892.26,0.00108081,0.00107155
1557.0,0.00312138,628.966,2897.88,2896.42,0.00281735,0.00280809
1560.0,0.00294355,629.131,2902.05,2900.59,0.00294355,0.00293429
1563.0,0.000914617,629.296,2906.21,2904.75,0.00101627,0.00100701
1566.0,0.000532403,629.461,2910.38,2908.91,0.000532403,0.000523145
1569.0,0.0,629.626,2914.54,2913.06,0.000420762,0.000411503
1572.0,0.00227471,629.791,2918.7,2917.22,0.00227471,0.00226545
1575.0,0.00293925,629.956,2922.86,2921.37,0.00242661,0.00241735
1578.0,0.00125962,630.121,2927.02,2925.52,0.00141718,0.00140792
1581.0,0.00101406,630.286,2931.17,2929.67,0.00101406,0.0010048
1584.0,0.000433129,630.451,2935.32,2933.82,0.000529101,0.000519842
1587.0,0.00106578,630.616,2939.47,2937.96,0.00106578,0.00105652
1590.0,0.00219786,630.781,2943.62,2942.11,0.00206801,0.00205875
1593.0,0.00153228,630.946,2947.77,2946.25,0.00153228,0.00152302
1596.0,0.000110977,631.111,2951.91,2950.38,0.000464611,0.000455351
1599.0,0.00222631,631.276,2956.05,2954.52,0.00136911,0.00135985
1602.0,0.0,631.441,2960.19,2958.65,0.000548651,0.000539391
1605.0,0.00151065,631.606,2964.33,2962.79,0.00120876,0.0011995
1608.0,0.000865858,631.771,2968.46,2966.92,0.00091636,0.0009071
1611.0,0.000523329,631.936,2972.6,2971.04,0.000523329,0.000514068
1614.0,0.00191097,632.101,2976.73,2975.17,0.00132348,0.00131422
1617.0,0.0,632.266,2980.85,2979.29,0.000420132,0.000410871
1620.0,0.000826547,632.431,2984.98,2983.41,0.000331064,0.000321803
1623.0,0.0,632.596,2989.1,2987.53,0.0,-9.26127e-06
1626.0,0.00210129,632.761,2993.23,2991.65,0.00102091,0.00101165
1629.0,0.000727569,632.926,2997.35,2995.76,0.00111109,0.00110183
1632.0,0.00145824,633.091,3001.46,2999.87,0.00143074,0.00142148
1635.0,0.0,633.256,3005.58,3003.98,0.00077789,0.000768628
1638.0,0.0,633.421,3009.69,3008.09,0.000190855,0.000181592
1641.0,0.00183146,633.585,3013.8,3012.2,0.00183146,0.0018222
1644.0,0.00110875,633.75,3017.91,3016.3,0.00110875,0.00109949
1647.0,9.08645e-05,633.915,3022.02,3020.4,9.08645e-05,8.16008e-05
1650.0,0.000493001,634.08,3026.12,3024.5,0.000493001,0.000483737
1653.0,0.000132061,634.245,3030.23,3028.6,0.000332064,0.0003228
1656.0,0.000461117,634.41,3034.33,3032.69,0.000461117,0.000451853
1659.0,0.00170002,634.575,3038.42,3036.79,0.00170002,0.00169076
1662.0,0.00107116,634.74,3042.52,3040.88,0.000251522,0.000242257
1665.0,0.000437277,634.905,3046.61,3044.97,0.000428844,0.000419579
1668.0,0.0,635.07,3050.71,3049.05,0.000428844,0.000419579
1671.0,0.000206042,635.235,3054.8,3053.14,0.000524979,0.000515714
1674.0,0.00200303,635.4,3058.88,3057.22,0.00144549,0.00143622
1677.0,0.000181322,635.565,3062.97,3061.3,0.000477556,0.00046829
1680.0,0.000478648,635.73,3067.05,3065.38,0.000674848,0.000665582
1683.0,0.000414847,635.895,3071.13,3069.45,0.000414847,0.000405581
1686.0,0.0,636.06,3075.21,3073.53,0.0,-9.26626e-06
1689.0,0.0,636.225,3079.29,3077.6,0.0,-9.26649e-06
1692.0,6.55789e-05,636.39,3083.36,3081.67,0.000684408,0.000675141
1695.0,0.000879258,636.555,3087.44,3085.74,0.000879258,0.000869991
1698.0,0.00261745,636.72,3091.51,3089.8,0.00235418,0.00234491
1701.0,0.000880085,636.885,3095.58,3093.87,0.000880085,0.000870818
1704.0,0.000205799,637.05,3099.64,3097.93,0.000205799,0.000196532
1707.0,0.00179774,637.215,3103.71,3101.99,0.000690909,0.000681642
1710.0,0.000934335,637.38,3107.77,3106.04,0.000934335,0.000925068
1713.0,0.000278924,637.545,3111.83,3110.1,0.000354921,0.000345654
1716.0,0.0014616,637.71,3115.89,3114.15,0.00055775,0.000548483
1719.0,0.000619645,637.875,3119.94,3118.2,0.000648204,0.000638937
1722.0,0.0,638.04,3124,3122.25,0.000292579,0.000283312
1725.0,0.000669726,638.205,3128.05,3126.3,0.000197448,0.000188181
1728.0,0.000562843,638.37,3132.1,3130.34,0.000562843,0.000553576
1731.0,0.00050494,638.535,3136.15,3134.38,0.00165301,0.00164374
1734.0,0.00258019,638.7,3140.19,3138.42,0.00189727,0.001888
1737.0,0.00281427,638.865,3144.24,3142.46,0.00189727,0.001888
1740.0,0.000713048,639.03,3148.28,3146.5,0.000650353,0.000641087
1743.0,0.0,639.195,3152.32,3150.53,0.0,-9.26597e-06
1746.0,0.00171825,639.36,3156.35,3154.56,0.00138351,0.00137424
1749.0,0.0025112,639.525,3160.39,3158.59,0.00219587,0.0021866
1752.0,0.00213962,639.69,3164.42,3162.62,0.00206311,0.00205384
1755.0,0.00176527,639.855,3168.45,3166.65,0.00176527,0.001756
1758.0,0.000599782,640.02,3172.48,3170.67,0.000826103,0.000816837
1761.0,0.00116371,640.185,3176.51,3174.69,0.0005524,0.000543134
1764.0,0.00114557,640.35,3180.53,3178.71,0.00114557,0.0011363
1767.0,0.000933605,640.515,3184.55,3182.73,0.000957607,0.000948341
1770.0,0.000771923,640.68,3188.58,3186.74,0.000508069,0.000498803
1773.0,0.0,640.845,3192.59,3190.76,0.0,-9.26564e-06
1776.0,0.000864721,641.01,3196.61,3194.77,0.000222558,0.000213292
1779.0,2.06738e-05,641.175,3200.62,3198.78,0.000144082,0.000134816
1782.0,0.0018718,641.34,3204.64,3202.78,0.00164954,0.00164027
1785.0,0.000343689,641.505,3208.65,3206.79,0.000343689,0.000334423
1788.0,0.0,641.67,3212.65,3210.79,0.0,-9.26586e-06
1791.0,0.000203987,641.835,3216.66,3214.79,0.0,-9.26597e-06
1794.0,0.00132704,642,3220.66,3218.79,0.00132704,0.00131777
1797.0,0.000242183,642.165,3224.67,3222.79,0.00071677,0.000707504
1800.0,0.000434769,642.33,3228.67,3226.78,0.00071677,0.000707504
1803.0,0.00107217,642.495,3232.66,3230.78,0.00100538,0.000996113
1806.0,0.000486796,642.66,3236.66,3234.77,0.000486796,0.000477529
1809.0,0.0,642.825,3240.65,3238.76,2.1497e-05,1.223e-05
1812.0,0.00135879,642.99,3244.65,3242.74,0.000289909,0.000280642
1815.0,0.0,643.155,3248.64,3246.73,0.000390351,0.000381084
1818.0,0.000572149,643.32,3252.62,3250.71,0.000572149,0.000562881
1821.0,0.000847335,643.485,3256.61,3254.69,0.000847335,0.000838067
1824.0,0.000736463,643.65,3260.59,3258.67,0.000974506,0.000965238
1827.0,0.000877479,643.815,3264.57,3262.64,0.000987799,0.000978531
1830.0,5.58935e-05,643.98,3268.55,3266.62,0.000196071,0.000186803
1833.0,0.0,644.145,3272.53,3270.59,0.000196071,0.000186803
1836.0,4.77167e-05,644.31,3276.51,3274.56,0.00025066,0.000241393
1839.0,0.000409828,644.475,3280.48,3278.53,0.00025066,0.000241393
1842.0,0.000916948,644.64,3284.45,3282.5,0.00046304,0.000453773
1845.0,0.000936451,644.805,3288.42,3286.46,0.000675674,0.000666407
1848.0,0.000136069,644.97,3292.39,3290.42,0.000136069,0.000126802
1851.0,0.00021046,645.135,3296.35,3294.38,0.00021046,0.000201193
1854.0,0.00130308,645.3,3300.31,3298.34,0.00112238,0.00111311
1857.0,0.0,645.465,3304.28,3302.3,0.000235098,0.000225832
1860.0,0.0,645.63,3308.23,3306.25,0.0,-9.26599e-06
1863.0,0.000143095,645.795,3312.19,3310.2,0.0,-9.26589e-06
1866.0,0.0,645.96,3316.15,3314.15,0.0,-9.26582e-06
1869.0,1.52229e-05,646.125,3320.1,3318.1,0.000166082,0.000156816
1872.0,0.0026059,646.29,3324.05,3322.05,0.00186297,0.0018537
1875.0,0.000977047,646.455,3328,3325.99,0.00150121,0.00149194
1878.0,0.00143979,646.619,3331.95,3329.93,0.00143979,0.00143052
1881.0,0.000471605,646.784,3335.89,3333.87,0.000471605,0.000462339
1884.0,0.0,646.949,3339.83,3337.81,0.000166082,0.000156816
1887.0,0.000477631,647.114,3343.78,3341.74,0.000221566,0.0002123
1890.0,0.00123564,647.279,3347.71,3345.68,0.00123564,0.00122637
1893.0,0.00139357,647.444,3351.65,3349.61,0.00142904,0.00141977
1896.0,0.00199962,647.609,3355.59,3353.54,0.00199962,0.00199035
1899.0,0.00118816,647.774,3359.52,3357.47,0.00156435,0.00155508
1902.0,0.00155249,647.939,3363.45,3361.39,0.00155249,0.00154322
1905.0,0.00116277,648.104,3367.38,3365.32,0.00117696,0.00116769
1908.0,0.00203111,648.269,3371.31,3369.24,0.00203111,0.00202184
1911.0,0.00241353,648.434,3375.23,3373.16,0.00241353,0.00240426
1914.0,0.0010441,648.599,3379.15,3377.08,0.0010441,0.00103483
1917.0,3.65349e-06,648.764,3383.07,3380.99,3.65349e-06,-5.61267e-06
1920.0,0.00310788,648.929,3386.99,3384.91,0.0017783,0.00176903
1923.0,0.0,649.094,3390.91,3388.82,0.000513897,0.000504631
1926.0,0.000127568,649.259,3394.83,3392.73,0.000513897,0.00050463
1929.0,0.00359821,649.424,3398.74,3396.64,0.00325778,0.00324851
1932.0,0.0043089,649.589,3402.65,3400.54,0.00371318,0.00370391
1935.0,0.00124671,649.754,3406.56,3404.45,0.00124671,0.00123744
1938.0,0.000254034,649.919,3410.47,3408.35,0.000608592,0.000599325
1941.0,0.0014226,650.084,3414.37,3412.25,0.00102905,0.00101978
1944.0,0.000691431,650.249,3418.27,3416.15,0.000691431,0.000682164
1947.0,0.00125768,650.414,3422.17,3420.04,0.00125768,0.00124841
1950.0,0.00279693,650.579,3426.07,3423.94,0.00251338,0.00250411
1953.0,0.000624412,650.744,3429.97,3427.83,0.00126807,0.0012588
1956.0,0.00146619,650.909,3433.87,3431.72,0.00146619,0.00145692
1959.0,0.00228419,651.074,3437.76,3435.61,0.00174889,0.00173962
1962.0,0.000690242,651.239,3441.65,3439.49,0.000690242,0.000680974
1965.0,0.000891747,651.404,3445.54,3443.38,0.000891747,0.000882478
1968.0,0.00287737,651.569,3449.43,3447.26,0.00287737,0.0028681
1971.0,0.00210936,651.734,3453.31,3451.14,0.00258874,0.00257947
1974.0,0.00227718,651.899,3457.2,3455.02,0.00227718,0.00226791
1977.0,0.000460229,652.064,3461.08,3458.89,0.000996308,0.000987039
1980.0,0.00279315,652.229,3464.96,3462.77,0.00230234,0.00229307
1983.0,0.00385068,652.394,3468.83,3466.64,0.0034367,0.00342743
1986.0,0.00261178,652.559,3472.71,3470.51,0.00261178,0.00260251
1989.0,0.00120836,652.724,3476.58,3474.38,0.0019886,0.00197933
1992.0,0.00318064,652.889,3480.45,3478.25,0.0024825,0.00247323
1995.0,0.00347293,653.054,3484.32,3482.11,0.00347293,0.00346366
1998.0,0.00323409,653.219,3488.19,3485.97,0.00323409,0.00322482
2001.0,0.00237865,653.384,3492.06,3489.83,0.00251857,0.0025093
2004.0,0.00534838,653.549,3495.92,3493.69,0.00484526,0.00483599
2007.0,0.00508999,653.714,3499.78,3497.55,0.00508999,0.00508072
2010.0,0.00386107,653.879,3503.64,3501.4,0.00386107,0.0038518
2013.0,0.0035983,654.044,3507.5,3505.26,0.00348936,0.00348009
2016.0,0.0,654.209,3511.36,3509.11,0.000400971,0.0003917
2019.0,0.0008591,654.374,3515.21,3512.96,0.0008591,0.000849829
2022.0,0.00363194,654.539,3519.06,3516.8,0.00363194,0.00362267
2025.0,0.00501015,654.704,3522.91,3520.65,0.00501015,0.00500088
2028.0,0.000990328,654.869,3526.76,3524.49,0.00178645,0.00177718
2031.0,0.00545855,655.034,3530.61,3528.33,0.00545855,0.00544928
2034.0,0.00741389,655.199,3534.45,3532.17,0.00741389,0.00740462
2037.0,0.0043626,655.364,3538.29,3536.01,0.0043626,0.00435333
2040.0,0.000323313,655.529,3542.13,3539.85,0.00113271,0.00112344
2043.0,0.000515285,655.694,3545.97,3543.68,0.000515285,0.000506012
2046.0,0.00044513,655.859,3549.81,3547.51,0.000233882,0.000224609
2047.0,0.000233882,655.914,3551.09,3548.79,7.13528e-05,6.20798e-05