File: data/processed/processed_data/2024-09-03/2024-09-03_glycinepowder_n_n_y_solid_10000_0_20.csv
Pixels #,Intensity (a.u.),Wavelength (nm),Raman shift (cm-1),Raman shift (cm-1) adjusted,Filtered Intensity (a.u.),Baselined Filtered Intensity (a.u.)
0.0,0.795398,543.337,392.223,393.994,0.795168,-0.00866516
3.0,0.795359,543.502,397.81,399.573,0.795359,-0.00847421
6.0,0.795476,543.667,403.394,405.15,0.795476,-0.00835733
9.0,0.79602,543.832,408.974,410.723,0.795894,-0.00793952
12.0,0.79533,543.997,414.551,416.293,0.79533,-0.00850378
15.0,0.794627,544.162,420.125,421.859,0.794924,-0.0089101
18.0,0.795333,544.327,425.695,427.422,0.79495,-0.00888451
21.0,0.794136,544.492,431.261,432.981,0.79406,-0.00977499
24.0,0.79396,544.657,436.825,438.537,0.794014,-0.00982155
27.0,0.795298,544.822,442.385,444.09,0.794855,-0.00898119
30.0,0.795226,544.987,447.941,449.64,0.795226,-0.00861091
33.0,0.794349,545.152,453.494,455.186,0.795366,-0.0084717
36.0,0.795739,545.317,459.044,460.728,0.795366,-0.00847256
39.0,0.795634,545.482,464.591,466.268,0.795634,-0.0082055
42.0,0.794875,545.647,470.134,471.804,0.795137,-0.0087035
45.0,0.795354,545.812,475.674,477.337,0.795354,-0.00848758
48.0,0.797545,545.977,481.21,482.866,0.797545,-0.00629773
51.0,0.797942,546.142,486.743,488.392,0.798143,-0.00570094
54.0,0.800659,546.307,492.273,493.915,0.800659,-0.00318619
57.0,0.805952,546.472,497.8,499.434,0.805952,0.00210553
60.0,0.811296,546.637,503.323,504.95,0.811296,0.00744827
63.0,0.816677,546.802,508.843,510.463,0.816677,0.0128281
66.0,0.822168,546.967,514.359,515.972,0.822168,0.018318
69.0,0.826558,547.132,519.872,521.478,0.826558,0.0227071
72.0,0.830331,547.297,525.382,526.981,0.830331,0.0264793
75.0,0.834595,547.462,530.888,532.48,0.834595,0.0307428
78.0,0.840943,547.627,536.392,537.976,0.840943,0.0370906
81.0,0.846065,547.792,541.891,543.469,0.846065,0.0422126
84.0,0.849579,547.957,547.388,548.958,0.849579,0.0457266
87.0,0.852572,548.122,552.881,554.444,0.852572,0.0487196
90.0,0.853132,548.287,558.371,559.927,0.853006,0.0491536
93.0,0.8526,548.452,563.858,565.407,0.853006,0.0491536
96.0,0.854408,548.617,569.341,570.883,0.854229,0.0503766
99.0,0.8544,548.782,574.821,576.356,0.85426,0.0504076
102.0,0.854263,548.947,580.298,581.826,0.854263,0.0504106
105.0,0.856092,549.112,585.771,587.292,0.856092,0.0522396
108.0,0.855353,549.277,591.241,592.755,0.855353,0.0515006
111.0,0.855631,549.442,596.708,598.215,0.855631,0.0517786
114.0,0.85514,549.607,602.172,603.671,0.855858,0.0520056
117.0,0.85569,549.772,607.632,609.125,0.855829,0.0519766
120.0,0.856168,549.937,613.089,614.575,0.855552,0.0516996
123.0,0.854903,550.102,618.543,620.021,0.854925,0.0510726
126.0,0.854631,550.267,623.993,625.465,0.854925,0.0510726
129.0,0.855764,550.432,629.44,630.905,0.855513,0.0516606
132.0,0.853952,550.597,634.884,636.342,0.853952,0.0500996
135.0,0.854366,550.762,640.325,641.776,0.854337,0.0504846
138.0,0.854786,550.927,645.762,647.206,0.854786,0.0509336
141.0,0.855799,551.092,651.197,652.633,0.855637,0.0517846
144.0,0.856874,551.257,656.627,658.057,0.856864,0.0530116
147.0,0.857772,551.422,662.055,663.478,0.857716,0.0538636
150.0,0.859273,551.587,667.48,668.895,0.859273,0.0554206
153.0,0.860472,551.752,672.901,674.309,0.860472,0.0566196
156.0,0.863055,551.917,678.319,679.72,0.863055,0.0592026
159.0,0.865187,552.082,683.733,685.128,0.865187,0.0613346
162.0,0.868177,552.247,689.145,690.533,0.868177,0.0643246
165.0,0.871437,552.412,694.553,695.934,0.871437,0.0675846
168.0,0.874874,552.577,699.958,701.332,0.874874,0.0710216
171.0,0.879098,552.742,705.36,706.727,0.879098,0.0752456
174.0,0.882599,552.907,710.758,712.118,0.882599,0.0787466
177.0,0.885955,553.072,716.154,717.507,0.885955,0.0821026
180.0,0.893194,553.237,721.546,722.892,0.893194,0.0893416
183.0,0.899908,553.402,726.935,728.274,0.899908,0.0960556
186.0,0.906776,553.567,732.32,733.652,0.906776,0.102924
189.0,0.915325,553.732,737.703,739.028,0.915325,0.111473
192.0,0.924475,553.897,743.082,744.4,0.924475,0.120623
195.0,0.933201,554.062,748.458,749.769,0.933201,0.129349
198.0,0.945183,554.227,753.831,755.135,0.945183,0.141331
201.0,0.957844,554.392,759.201,760.498,0.957844,0.153992
204.0,0.972637,554.557,764.567,765.858,0.972637,0.168785
207.0,0.988949,554.722,769.93,771.214,0.988949,0.185097
210.0,1.00571,554.887,775.29,776.567,1.00571,0.201858
213.0,1.02676,555.052,780.647,781.917,1.02676,0.222908
216.0,1.04775,555.217,786.001,787.264,1.04775,0.243898
219.0,1.06981,555.382,791.352,792.608,1.06981,0.265958
222.0,1.09471,555.546,796.699,797.948,1.09471,0.290858
225.0,1.12258,555.711,802.043,803.285,1.12258,0.318728
228.0,1.14985,555.876,807.384,808.62,1.14985,0.345998
231.0,1.1797,556.041,812.722,813.951,1.1797,0.375848
234.0,1.20993,556.206,818.057,819.278,1.20993,0.406078
237.0,1.2397,556.371,823.388,824.603,1.2397,0.435848
240.0,1.27192,556.536,828.716,829.924,1.27192,0.468068
243.0,1.30222,556.701,834.042,835.243,1.30222,0.498368
246.0,1.33165,556.866,839.364,840.558,1.33165,0.527798
249.0,1.35891,557.031,844.682,845.87,1.35891,0.555058
252.0,1.38548,557.196,849.998,851.179,1.38548,0.581628
255.0,1.4102,557.361,855.311,856.485,1.4102,0.606348
258.0,1.43119,557.526,860.62,861.787,1.43119,0.627338
261.0,1.45119,557.691,865.927,867.087,1.45119,0.647338
264.0,1.47058,557.856,871.23,872.383,1.47058,0.666728
267.0,1.49124,558.021,876.53,877.676,1.49124,0.687388
270.0,1.52517,558.186,881.827,882.966,1.52517,0.721318
273.0,1.55135,558.351,887.12,888.253,1.55135,0.747498
276.0,1.5606,558.516,892.411,893.537,1.56034,0.756488
279.0,1.55648,558.681,897.698,898.818,1.55648,0.752628
282.0,1.5402,558.846,902.983,904.095,1.5402,0.736348
285.0,1.53488,559.011,908.264,909.37,1.53488,0.731028
288.0,1.53607,559.176,913.542,914.641,1.53607,0.732218
291.0,1.53779,559.341,918.817,919.909,1.53779,0.733938
294.0,1.53862,559.506,924.089,925.174,1.53895,0.735098
297.0,1.53948,559.671,929.358,930.436,1.53941,0.735558
300.0,1.54042,559.836,934.624,935.695,1.54042,0.736568
303.0,1.53956,560.001,939.886,940.951,1.54048,0.736628
306.0,1.5409,560.166,945.146,946.204,1.54066,0.736808
309.0,1.54006,560.331,950.402,951.454,1.54041,0.736558
312.0,1.54078,560.496,955.656,956.7,1.54076,0.736908
315.0,1.54099,560.661,960.906,961.944,1.54147,0.737618
318.0,1.54243,560.826,966.153,967.184,1.54206,0.738208
321.0,1.54342,560.991,971.397,972.421,1.54342,0.739568
324.0,1.5464,561.156,976.638,977.655,1.54612,0.742268
327.0,1.54724,561.321,981.876,982.887,1.54724,0.743388
330.0,1.54957,561.486,987.111,988.115,1.54957,0.745718
333.0,1.55139,561.651,992.342,993.34,1.5515,0.747648
336.0,1.55567,561.816,997.571,998.562,1.55567,0.751818
339.0,1.55922,561.981,1002.8,1003.78,1.55881,0.754958
342.0,1.56222,562.146,1008.02,1009,1.56222,0.758368
345.0,1.56703,562.311,1013.24,1014.21,1.56703,0.763178
348.0,1.57297,562.476,1018.45,1019.42,1.57297,0.769118
351.0,1.58185,562.641,1023.67,1024.63,1.58185,0.777998
354.0,1.59064,562.806,1028.88,1029.83,1.59064,0.786788
357.0,1.59548,562.971,1034.09,1035.03,1.59548,0.791628
360.0,1.59639,563.136,1039.29,1040.23,1.59627,0.792418
363.0,1.5928,563.301,1044.49,1045.42,1.59331,0.789458
366.0,1.59399,563.466,1049.69,1050.61,1.59399,0.790138
369.0,1.59512,563.631,1054.88,1055.8,1.59512,0.791268
372.0,1.59708,563.796,1060.08,1060.99,1.59677,0.792918
375.0,1.59703,563.961,1065.27,1066.17,1.59746,0.793608
378.0,1.60026,564.126,1070.45,1071.35,1.59983,0.795978
381.0,1.60128,564.291,1075.63,1076.52,1.60128,0.797428
384.0,1.60221,564.456,1080.81,1081.7,1.60261,0.798758
387.0,1.60405,564.621,1085.99,1086.87,1.60387,0.800018
390.0,1.60545,564.786,1091.16,1092.03,1.60545,0.801598
393.0,1.60681,564.951,1096.34,1097.2,1.60742,0.803568
396.0,1.61081,565.116,1101.5,1102.36,1.61042,0.806568
399.0,1.6122,565.281,1106.67,1107.52,1.6122,0.808348
402.0,1.61191,565.446,1111.83,1112.67,1.61251,0.808658
405.0,1.61256,565.611,1116.99,1117.82,1.61251,0.808658
408.0,1.61268,565.776,1122.14,1122.97,1.61268,0.808828
411.0,1.61578,565.941,1127.3,1128.12,1.61578,0.811928
414.0,1.62073,566.106,1132.45,1133.26,1.61997,0.816118
417.0,1.62097,566.271,1137.59,1138.4,1.62097,0.817118
420.0,1.62327,566.436,1142.74,1143.54,1.62274,0.818888
423.0,1.61992,566.601,1147.88,1148.67,1.61992,0.816068
426.0,1.61904,566.766,1153.02,1153.81,1.61913,0.815278
429.0,1.61993,566.931,1158.15,1158.93,1.61993,0.816078
432.0,1.62158,567.096,1163.28,1164.06,1.62158,0.817728
435.0,1.62333,567.261,1168.41,1169.18,1.62319,0.819338
438.0,1.62334,567.426,1173.54,1174.3,1.62334,0.819488
441.0,1.62752,567.591,1178.66,1179.42,1.62752,0.823668
444.0,1.62942,567.756,1183.78,1184.53,1.6293,0.825448
447.0,1.63032,567.921,1188.9,1189.64,1.63032,0.826468
450.0,1.63119,568.086,1194.01,1194.75,1.63123,0.827378
453.0,1.63556,568.251,1199.12,1199.85,1.63556,0.831708
456.0,1.63596,568.416,1204.23,1204.95,1.63596,0.832108
459.0,1.63934,568.58,1209.33,1210.05,1.63902,0.835168
462.0,1.64037,568.745,1214.44,1215.15,1.64037,0.836518
465.0,1.64162,568.91,1219.53,1220.24,1.64148,0.837628
468.0,1.64218,569.075,1224.63,1225.33,1.64218,0.838328
471.0,1.64345,569.24,1229.72,1230.42,1.64345,0.839598
474.0,1.64464,569.405,1234.81,1235.5,1.64464,0.840788
477.0,1.64528,569.57,1239.9,1240.58,1.64528,0.841428
480.0,1.64712,569.735,1244.99,1245.66,1.64712,0.843268
483.0,1.64809,569.9,1250.07,1250.73,1.64809,0.844238
486.0,1.64997,570.065,1255.14,1255.8,1.64941,0.845558
489.0,1.65011,570.23,1260.22,1260.87,1.65011,0.846258
492.0,1.6515,570.395,1265.29,1265.94,1.6515,0.847648
495.0,1.65405,570.56,1270.36,1271,1.65405,0.850198
498.0,1.65438,570.725,1275.43,1276.06,1.65474,0.850888
501.0,1.65701,570.89,1280.49,1281.12,1.65701,0.853158
504.0,1.65832,571.055,1285.55,1286.17,1.65832,0.854468
507.0,1.66081,571.22,1290.61,1291.22,1.66081,0.856958
510.0,1.66445,571.385,1295.67,1296.27,1.66445,0.860598
513.0,1.67294,571.55,1300.72,1301.32,1.67294,0.869088
516.0,1.68209,571.715,1305.77,1306.36,1.68209,0.878238
519.0,1.69926,571.88,1310.81,1311.4,1.69926,0.895408
522.0,1.72671,572.045,1315.86,1316.44,1.72671,0.922858
525.0,1.74287,572.21,1320.9,1321.47,1.74278,0.938928
528.0,1.74049,572.375,1325.94,1326.5,1.74049,0.936638
531.0,1.71896,572.54,1330.97,1331.53,1.71896,0.915108
534.0,1.69225,572.705,1336,1336.56,1.69225,0.888398
537.0,1.67853,572.87,1341.03,1341.58,1.67853,0.874678
540.0,1.67528,573.035,1346.06,1346.6,1.67567,0.871818
543.0,1.67575,573.2,1351.08,1351.61,1.67575,0.871898
546.0,1.67555,573.365,1356.1,1356.63,1.67606,0.872208
549.0,1.67724,573.53,1361.12,1361.64,1.67724,0.873388
552.0,1.68047,573.695,1366.13,1366.65,1.68035,0.876498
555.0,1.68031,573.86,1371.14,1371.65,1.68084,0.876988
558.0,1.68557,574.025,1376.15,1376.65,1.68472,0.880868
561.0,1.68769,574.19,1381.16,1381.65,1.68769,0.883838
564.0,1.69212,574.355,1386.16,1386.65,1.69212,0.888268
567.0,1.69763,574.52,1391.16,1391.64,1.69763,0.893778
570.0,1.70427,574.685,1396.16,1396.63,1.70427,0.900418
573.0,1.71365,574.85,1401.15,1401.62,1.71365,0.909798
576.0,1.71998,575.015,1406.14,1406.61,1.71998,0.916128
579.0,1.7209,575.18,1411.13,1411.59,1.7209,0.917048
582.0,1.715,575.345,1416.12,1416.57,1.715,0.911148
585.0,1.70574,575.51,1421.1,1421.54,1.70574,0.901888
588.0,1.70091,575.675,1426.08,1426.52,1.70135,0.897498
591.0,1.7035,575.84,1431.06,1431.49,1.7035,0.899648
594.0,1.7053,576.005,1436.03,1436.46,1.7053,0.901448
597.0,1.70653,576.17,1441,1441.42,1.70653,0.902678
600.0,1.70764,576.335,1445.97,1446.38,1.7078,0.903948
603.0,1.70891,576.5,1450.94,1451.34,1.70878,0.904928
606.0,1.70821,576.665,1455.9,1456.3,1.70821,0.904358
609.0,1.70613,576.83,1460.86,1461.25,1.70613,0.902278
612.0,1.70012,576.995,1465.82,1466.2,1.70012,0.896268
615.0,1.69878,577.16,1470.77,1471.15,1.69818,0.894328
618.0,1.69725,577.325,1475.72,1476.1,1.69738,0.893528
621.0,1.70013,577.49,1480.67,1481.04,1.70013,0.896278
624.0,1.70117,577.655,1485.62,1485.98,1.70136,0.897508
627.0,1.70319,577.82,1490.56,1490.91,1.70319,0.899338
630.0,1.70725,577.985,1495.5,1495.85,1.70725,0.903398
633.0,1.70852,578.15,1500.44,1500.78,1.70878,0.904928
636.0,1.71103,578.315,1505.37,1505.71,1.71103,0.907178
639.0,1.71214,578.48,1510.3,1510.63,1.71214,0.908288
642.0,1.7121,578.645,1515.23,1515.55,1.71207,0.908218
645.0,1.71242,578.81,1520.16,1520.47,1.71187,0.908018
648.0,1.71031,578.975,1525.08,1525.39,1.7109,0.907048
651.0,1.71147,579.14,1530,1530.31,1.71121,0.907358
654.0,1.71244,579.305,1534.92,1535.22,1.71244,0.908588
657.0,1.71114,579.47,1539.83,1540.13,1.71114,0.907288
660.0,1.71277,579.635,1544.75,1545.03,1.71252,0.908668
663.0,1.71238,579.8,1549.65,1549.93,1.7127,0.908848
666.0,1.71504,579.965,1554.56,1554.83,1.71504,0.911188
669.0,1.72066,580.13,1559.47,1559.73,1.72066,0.916808
672.0,1.72584,580.295,1564.37,1564.63,1.72456,0.920708
675.0,1.72326,580.46,1569.26,1569.52,1.72326,0.919408
678.0,1.72107,580.625,1574.16,1574.41,1.72107,0.917218
681.0,1.71911,580.79,1579.05,1579.29,1.71911,0.915258
684.0,1.71333,580.955,1583.94,1584.18,1.71333,0.909478
687.0,1.71332,581.12,1588.83,1589.06,1.71273,0.908878
690.0,1.71127,581.285,1593.71,1593.94,1.71209,0.908238
693.0,1.71175,581.45,1598.59,1598.81,1.71175,0.907898
696.0,1.71223,581.614,1603.47,1603.68,1.71206,0.908208
699.0,1.71202,581.779,1608.35,1608.55,1.71229,0.908438
702.0,1.71318,581.944,1613.22,1613.42,1.71229,0.908438
705.0,1.71192,582.109,1618.09,1618.28,1.71207,0.908218
708.0,1.715,582.274,1622.96,1623.15,1.71483,0.910978
711.0,1.71551,582.439,1627.83,1628,1.7149,0.911048
714.0,1.71351,582.604,1632.69,1632.86,1.71462,0.910768
717.0,1.71403,582.769,1637.55,1637.71,1.71403,0.910178
720.0,1.70986,582.934,1642.4,1642.56,1.71014,0.906288
723.0,1.71207,583.099,1647.26,1647.41,1.71201,0.908158
726.0,1.71313,583.264,1652.11,1652.26,1.71313,0.909278
729.0,1.7142,583.429,1656.96,1657.1,1.71458,0.910728
732.0,1.71615,583.594,1661.8,1661.94,1.71615,0.912298
735.0,1.71796,583.759,1666.65,1666.77,1.71796,0.914108
738.0,1.71838,583.924,1671.49,1671.61,1.71838,0.914528
741.0,1.71606,584.089,1676.32,1676.44,1.71606,0.912208
744.0,1.71428,584.254,1681.16,1681.27,1.71401,0.910158
747.0,1.71233,584.419,1685.99,1686.09,1.71233,0.908478
750.0,1.71282,584.584,1690.82,1690.92,1.71218,0.908328
753.0,1.71202,584.749,1695.65,1695.74,1.71202,0.908168
756.0,1.7132,584.914,1700.47,1700.55,1.71274,0.908888
759.0,1.7121,585.079,1705.29,1705.37,1.7121,0.908248
762.0,1.71101,585.244,1710.11,1710.18,1.71124,0.907388
765.0,1.71247,585.409,1714.92,1714.99,1.71247,0.908618
768.0,1.71465,585.574,1719.74,1719.8,1.71372,0.909868
771.0,1.71305,585.739,1724.55,1724.6,1.7138,0.909948
774.0,1.71449,585.904,1729.35,1729.4,1.71391,0.910058
777.0,1.71424,586.069,1734.16,1734.2,1.71391,0.910058
780.0,1.71299,586.234,1738.96,1739,1.71299,0.909138
783.0,1.7138,586.399,1743.76,1743.79,1.71344,0.909588
786.0,1.71339,586.564,1748.56,1748.58,1.71339,0.909538
789.0,1.71314,586.729,1753.35,1753.37,1.71314,0.909288
792.0,1.71374,586.894,1758.14,1758.15,1.71374,0.909888
795.0,1.71366,587.059,1762.93,1762.94,1.71329,0.909438
798.0,1.7123,587.224,1767.72,1767.72,1.71349,0.909638
801.0,1.71417,587.389,1772.5,1772.49,1.71394,0.910088
804.0,1.713,587.554,1777.28,1777.27,1.713,0.909148
807.0,1.71086,587.719,1782.06,1782.04,1.71086,0.907008
810.0,1.71246,587.884,1786.83,1786.81,1.71213,0.908278
813.0,1.71124,588.049,1791.61,1791.57,1.71124,0.907388
816.0,1.71095,588.214,1796.38,1796.34,1.71095,0.907098
819.0,1.71165,588.379,1801.14,1801.1,1.71197,0.908118
822.0,1.71262,588.544,1805.91,1805.86,1.71247,0.908618
825.0,1.7124,588.709,1810.67,1810.61,1.7124,0.908548
828.0,1.71357,588.874,1815.43,1815.37,1.71357,0.909718
831.0,1.71359,589.039,1820.19,1820.12,1.71359,0.909738
834.0,1.71269,589.204,1824.94,1824.86,1.71296,0.909108
837.0,1.71365,589.369,1829.69,1829.61,1.71296,0.909108
840.0,1.71219,589.534,1834.44,1834.35,1.71237,0.908518
843.0,1.71291,589.699,1839.18,1839.09,1.71291,0.909058
846.0,1.71442,589.864,1843.93,1843.83,1.71432,0.910468
849.0,1.7126,590.029,1848.67,1848.56,1.71328,0.909428
852.0,1.71436,590.194,1853.41,1853.29,1.71436,0.910508
855.0,1.71431,590.359,1858.14,1858.02,1.71434,0.910488
858.0,1.71349,590.524,1862.87,1862.75,1.71384,0.909988
861.0,1.71475,590.689,1867.6,1867.47,1.71475,0.910898
864.0,1.71598,590.854,1872.33,1872.2,1.71598,0.912128
867.0,1.71533,591.019,1877.06,1876.91,1.71542,0.911568
870.0,1.71556,591.184,1881.78,1881.63,1.71556,0.911708
873.0,1.71392,591.349,1886.5,1886.34,1.71392,0.910068
876.0,1.71288,591.514,1891.21,1891.05,1.71288,0.909028
879.0,1.71199,591.679,1895.93,1895.76,1.71235,0.908498
882.0,1.71345,591.844,1900.64,1900.47,1.71333,0.909478
885.0,1.71271,592.009,1905.35,1905.17,1.71238,0.908528
888.0,1.71163,592.174,1910.05,1909.87,1.71201,0.908158
891.0,1.71218,592.339,1914.76,1914.57,1.71151,0.907658
894.0,1.70929,592.504,1919.46,1919.26,1.7103,0.906448
897.0,1.70995,592.669,1924.16,1923.96,1.70995,0.906098
900.0,1.70914,592.834,1928.85,1928.64,1.70914,0.905288
903.0,1.70835,592.999,1933.55,1933.33,1.70825,0.904398
906.0,1.70792,593.164,1938.24,1938.02,1.70792,0.904068
909.0,1.70757,593.329,1942.93,1942.7,1.70729,0.903438
912.0,1.707,593.494,1947.61,1947.38,1.707,0.903148
915.0,1.70427,593.659,1952.29,1952.05,1.70427,0.900418
918.0,1.70267,593.824,1956.97,1956.73,1.70267,0.898818
921.0,1.70275,593.989,1961.65,1961.4,1.7026,0.898748
924.0,1.70211,594.154,1966.33,1966.07,1.70185,0.897998
927.0,1.70071,594.319,1971,1970.73,1.70109,0.897238
930.0,1.70116,594.484,1975.67,1975.4,1.70109,0.897238
933.0,1.70074,594.648,1980.33,1980.06,1.70074,0.896888
936.0,1.69765,594.813,1985,1984.72,1.69765,0.893798
939.0,1.69772,594.978,1989.66,1989.37,1.69772,0.893868
942.0,1.69746,595.143,1994.32,1994.03,1.69746,0.893608
945.0,1.69481,595.308,1998.98,1998.68,1.69491,0.891058
948.0,1.69419,595.473,2003.63,2003.33,1.69419,0.890338
951.0,1.69353,595.638,2008.28,2007.97,1.69305,0.889198
954.0,1.69147,595.803,2012.93,2012.62,1.69147,0.887618
957.0,1.69088,595.968,2017.58,2017.26,1.69078,0.886928
960.0,1.68957,596.133,2022.22,2021.89,1.68957,0.885718
963.0,1.68948,596.298,2026.86,2026.53,1.6892,0.885348
966.0,1.68663,596.463,2031.5,2031.16,1.68772,0.883868
969.0,1.68831,596.628,2036.14,2035.79,1.68757,0.883718
972.0,1.68556,596.793,2040.77,2040.42,1.68556,0.881708
975.0,1.68337,596.958,2045.4,2045.05,1.68337,0.879518
978.0,1.68197,597.123,2050.03,2049.67,1.6821,0.878248
981.0,1.67999,597.288,2054.66,2054.29,1.6801,0.876248
984.0,1.67937,597.453,2059.28,2058.91,1.67937,0.875518
987.0,1.67834,597.618,2063.9,2063.52,1.67834,0.874488
990.0,1.67558,597.783,2068.52,2068.13,1.67558,0.871728
993.0,1.67342,597.948,2073.14,2072.74,1.67383,0.869978
996.0,1.67378,598.113,2077.75,2077.35,1.67355,0.869698
999.0,1.67158,598.278,2082.36,2081.95,1.67158,0.867728
1002.0,1.67097,598.443,2086.97,2086.56,1.67075,0.866898
1005.0,1.66771,598.608,2091.57,2091.16,1.66879,0.864938
1008.0,1.6687,598.773,2096.18,2095.75,1.66811,0.864258
1011.0,1.66746,598.938,2100.78,2100.35,1.66692,0.863068
1014.0,1.66544,599.103,2105.38,2104.94,1.66544,0.861588
1017.0,1.66354,599.268,2109.97,2109.53,1.66402,0.860168
1020.0,1.66319,599.433,2114.56,2114.12,1.66319,0.859338
1023.0,1.66267,599.598,2119.15,2118.7,1.66262,0.858768
1026.0,1.66122,599.763,2123.74,2123.28,1.66122,0.857368
1029.0,1.66078,599.928,2128.33,2127.86,1.66078,0.856928
1032.0,1.65894,600.093,2132.91,2132.44,1.65894,0.855088
1035.0,1.6563,600.258,2137.49,2137.01,1.6563,0.852448
1038.0,1.65501,600.423,2142.07,2141.59,1.65565,0.851798
1041.0,1.65609,600.588,2146.64,2146.15,1.65578,0.851928
1044.0,1.65276,600.753,2151.22,2150.72,1.65276,0.848908
1047.0,1.65087,600.918,2155.79,2155.29,1.65109,0.847238
1050.0,1.64994,601.083,2160.35,2159.85,1.64994,0.846088
1053.0,1.64864,601.248,2164.92,2164.41,1.64864,0.844788
1056.0,1.64677,601.413,2169.48,2168.96,1.64691,0.843058
1059.0,1.6465,601.578,2174.04,2173.52,1.6465,0.842648
1062.0,1.64453,601.743,2178.6,2178.07,1.64463,0.840778
1065.0,1.6423,601.908,2183.16,2182.62,1.6423,0.838448
1068.0,1.64178,602.073,2187.71,2187.17,1.64178,0.837928
1071.0,1.64061,602.238,2192.26,2191.71,1.64113,0.837278
1074.0,1.6415,602.403,2196.81,2196.25,1.6415,0.837648
1077.0,1.63911,602.568,2201.35,2200.79,1.63911,0.835258
1080.0,1.6379,602.733,2205.89,2205.33,1.6379,0.834048
1083.0,1.63904,602.898,2210.43,2209.86,1.63821,0.834358
1086.0,1.63768,603.063,2214.97,2214.4,1.63768,0.833828
1089.0,1.6351,603.228,2219.51,2218.92,1.63557,0.831718
1092.0,1.63431,603.393,2224.04,2223.45,1.63435,0.830498
1095.0,1.63383,603.558,2228.57,2227.98,1.63419,0.830338
1098.0,1.63468,603.723,2233.1,2232.5,1.63408,0.830228
1101.0,1.63307,603.888,2237.62,2237.02,1.63318,0.829328
1104.0,1.63191,604.053,2242.15,2241.54,1.63191,0.828058
1107.0,1.63066,604.218,2246.67,2246.05,1.63066,0.826808
1110.0,1.63017,604.383,2251.19,2250.56,1.63017,0.826318
1113.0,1.62985,604.548,2255.7,2255.07,1.62985,0.825998
1116.0,1.62778,604.713,2260.21,2259.58,1.62789,0.824038
1119.0,1.62806,604.878,2264.72,2264.08,1.62789,0.824038
1122.0,1.62517,605.043,2269.23,2268.59,1.62517,0.821318
1125.0,1.62354,605.208,2273.74,2273.09,1.624,0.820148
1128.0,1.62209,605.373,2278.24,2277.58,1.62209,0.818238
1131.0,1.62034,605.538,2282.74,2282.08,1.62053,0.816678
1134.0,1.62141,605.703,2287.24,2286.57,1.62053,0.816678
1137.0,1.61871,605.868,2291.74,2291.06,1.61935,0.815498
1140.0,1.619,606.033,2296.23,2295.55,1.619,0.815148
1143.0,1.61705,606.198,2300.72,2300.03,1.61705,0.813198
1146.0,1.6163,606.363,2305.21,2304.52,1.6163,0.812448
1149.0,1.61523,606.528,2309.7,2309,1.61523,0.811378
1152.0,1.61341,606.693,2314.18,2313.47,1.61359,0.809738
1155.0,1.61398,606.858,2318.66,2317.95,1.61355,0.809698
1158.0,1.61198,607.023,2323.14,2322.42,1.6124,0.808548
1161.0,1.61139,607.188,2327.62,2326.89,1.61139,0.807538
1164.0,1.61085,607.353,2332.09,2331.36,1.6106,0.806748
1167.0,1.60889,607.518,2336.56,2335.83,1.60894,0.805088
1170.0,1.60797,607.682,2341.03,2340.29,1.60832,0.804468
1173.0,1.60927,607.847,2345.5,2344.75,1.60837,0.804518
1176.0,1.60696,608.012,2349.96,2349.21,1.60726,0.803408
1179.0,1.60594,608.177,2354.42,2353.67,1.60594,0.802088
1182.0,1.60463,608.342,2358.88,2358.12,1.60449,0.800638
1185.0,1.60217,608.507,2363.34,2362.57,1.60305,0.799198
1188.0,1.6031,608.672,2367.79,2367.02,1.6031,0.799248
1191.0,1.60024,608.837,2372.25,2371.47,1.60088,0.797028
1194.0,1.60247,609.002,2376.7,2375.91,1.60116,0.797308
1197.0,1.5987,609.167,2381.14,2380.35,1.5987,0.794848
1200.0,1.59598,609.332,2385.59,2384.79,1.59605,0.792198
1203.0,1.59581,609.497,2390.03,2389.23,1.59581,0.791958
1206.0,1.59538,609.662,2394.47,2393.66,1.59538,0.791528
1209.0,1.59309,609.827,2398.91,2398.09,1.59309,0.789238
1212.0,1.59218,609.992,2403.34,2402.52,1.5926,0.788748
1215.0,1.59193,610.157,2407.78,2406.95,1.59193,0.788078
1218.0,1.58879,610.322,2412.21,2411.38,1.58944,0.785588
1221.0,1.59038,610.487,2416.63,2415.8,1.58983,0.785978
1224.0,1.58659,610.652,2421.06,2420.22,1.58659,0.782738
1227.0,1.58571,610.817,2425.48,2424.64,1.58574,0.781888
1230.0,1.5845,610.982,2429.9,2429.05,1.5845,0.780648
1233.0,1.58283,611.147,2434.32,2433.46,1.58283,0.778978
1236.0,1.58188,611.312,2438.74,2437.87,1.58188,0.778028
1239.0,1.58029,611.477,2443.15,2442.28,1.58042,0.776568
1242.0,1.58009,611.642,2447.56,2446.69,1.58009,0.776238
1245.0,1.57751,611.807,2451.97,2451.09,1.57869,0.774838
1248.0,1.57939,611.972,2456.38,2455.49,1.57869,0.774838
1251.0,1.57602,612.137,2460.78,2459.89,1.57602,0.772168
1254.0,1.57549,612.302,2465.19,2464.29,1.57541,0.771558
1257.0,1.57379,612.467,2469.59,2468.68,1.57379,0.769938
1260.0,1.57202,612.632,2473.98,2473.07,1.57224,0.768388
1263.0,1.57079,612.797,2478.38,2477.46,1.57073,0.766878
1266.0,1.56831,612.962,2482.77,2481.85,1.56831,0.764458
1269.0,1.56832,613.127,2487.16,2486.23,1.56782,0.763968
1272.0,1.56534,613.292,2491.55,2490.61,1.56534,0.761488
1275.0,1.56336,613.457,2495.93,2494.99,1.56336,0.759508
1278.0,1.56305,613.622,2500.32,2499.37,1.56315,0.759298
1281.0,1.56182,613.787,2504.7,2503.75,1.56182,0.757968
1284.0,1.56088,613.952,2509.07,2508.12,1.56087,0.757018
1287.0,1.56034,614.117,2513.45,2512.49,1.55971,0.755858
1290.0,1.55606,614.282,2517.82,2516.86,1.55693,0.753078
1293.0,1.55679,614.447,2522.19,2521.22,1.55652,0.752668
1296.0,1.55546,614.612,2526.56,2525.59,1.55546,0.751608
1299.0,1.5517,614.777,2530.93,2529.95,1.5517,0.747848
1302.0,1.54981,614.942,2535.29,2534.3,1.54981,0.745958
1305.0,1.54994,615.107,2539.66,2538.66,1.54956,0.745708
1308.0,1.54759,615.272,2544.02,2543.01,1.54759,0.743738
1311.0,1.54525,615.437,2548.37,2547.37,1.54525,0.741398
1314.0,1.54323,615.602,2552.73,2551.72,1.54323,0.739378
1317.0,1.54104,615.767,2557.08,2556.06,1.54132,0.737468
1320.0,1.53979,615.932,2561.43,2560.41,1.53979,0.735938
1323.0,1.53795,616.097,2565.78,2564.75,1.53795,0.734098
1326.0,1.53704,616.262,2570.12,2569.09,1.53704,0.733188
1329.0,1.53491,616.427,2574.47,2573.43,1.53491,0.731058
1332.0,1.53236,616.592,2578.81,2577.76,1.53236,0.728508
1335.0,1.53043,616.757,2583.15,2582.09,1.53043,0.726578
1338.0,1.52907,616.922,2587.48,2586.42,1.52981,0.725958
1341.0,1.52779,617.087,2591.82,2590.75,1.52795,0.724098
1344.0,1.52885,617.252,2596.15,2595.08,1.52819,0.724338
1347.0,1.5261,617.417,2600.48,2599.4,1.52634,0.722488
1350.0,1.52669,617.582,2604.8,2603.72,1.52603,0.722178
1353.0,1.52346,617.747,2609.13,2608.04,1.52346,0.719608
1356.0,1.52127,617.912,2613.45,2612.36,1.52127,0.717418
1359.0,1.51916,618.077,2617.77,2616.67,1.51916,0.715308
1362.0,1.51717,618.242,2622.09,2620.99,1.51717,0.713318
1365.0,1.51457,618.407,2626.4,2625.3,1.51457,0.710718
1368.0,1.51216,618.572,2630.72,2629.6,1.51216,0.708308
1371.0,1.511,618.737,2635.03,2633.91,1.511,0.707148
1374.0,1.50769,618.902,2639.34,2638.21,1.50794,0.704088
1377.0,1.50798,619.067,2643.64,2642.51,1.5076,0.703748
1380.0,1.50495,619.232,2647.95,2646.81,1.50495,0.701098
1383.0,1.50221,619.397,2652.25,2651.11,1.50225,0.698398
1386.0,1.5024,619.562,2656.55,2655.4,1.50225,0.698398
1389.0,1.50205,619.727,2660.84,2659.69,1.50187,0.698018
1392.0,1.49802,619.892,2665.14,2663.98,1.49818,0.694328
1395.0,1.49784,620.057,2669.43,2668.27,1.49747,0.693618
1398.0,1.49546,620.222,2673.72,2672.55,1.49546,0.691608
1401.0,1.49306,620.387,2678.01,2676.84,1.49306,0.689208
1404.0,1.49172,620.551,2682.29,2681.12,1.49218,0.688328
1407.0,1.49167,620.716,2686.58,2685.39,1.49167,0.687818
1410.0,1.49077,620.881,2690.86,2689.67,1.4907,0.686848
1413.0,1.48834,621.046,2695.14,2693.94,1.48886,0.685008
1416.0,1.48856,621.211,2699.41,2698.21,1.48856,0.684708
1419.0,1.48641,621.376,2703.69,2702.48,1.48641,0.682558
1422.0,1.4833,621.541,2707.96,2706.75,1.48403,0.680178
1425.0,1.48334,621.706,2712.23,2711.01,1.48333,0.679478
1428.0,1.48252,621.871,2716.5,2715.27,1.48242,0.678568
1431.0,1.48194,622.036,2720.76,2719.53,1.48194,0.678088
1434.0,1.48021,622.201,2725.03,2723.79,1.48021,0.676358
1437.0,1.47846,622.366,2729.29,2728.05,1.47848,0.674628
1440.0,1.47806,622.531,2733.54,2732.3,1.47806,0.674208
1443.0,1.47684,622.696,2737.8,2736.55,1.47684,0.672988
1446.0,1.47597,622.861,2742.05,2740.8,1.47597,0.672118
1449.0,1.47346,623.026,2746.31,2745.04,1.47346,0.669608
1452.0,1.47046,623.191,2750.56,2749.29,1.47086,0.667008
1455.0,1.47138,623.356,2754.8,2753.53,1.47086,0.667008
1458.0,1.46829,623.521,2759.05,2757.77,1.4685,0.664648
1461.0,1.4676,623.686,2763.29,2762.01,1.4676,0.663748
1464.0,1.46679,623.851,2767.53,2766.24,1.46616,0.662308
1467.0,1.46396,624.016,2771.77,2770.47,1.46396,0.660108
1470.0,1.46315,624.181,2776,2774.7,1.46315,0.659298
1473.0,1.46192,624.346,2780.24,2778.93,1.46231,0.658458
1476.0,1.46132,624.511,2784.47,2783.16,1.46132,0.657468
1479.0,1.4619,624.676,2788.7,2787.38,1.46069,0.656838
1482.0,1.45877,624.841,2792.93,2791.6,1.45877,0.654918
1485.0,1.45799,625.006,2797.15,2795.82,1.45799,0.654138
1488.0,1.4558,625.171,2801.37,2800.04,1.4558,0.651948
1491.0,1.4562,625.336,2805.59,2804.25,1.45596,0.652108
1494.0,1.45412,625.501,2809.81,2808.47,1.45412,0.650268
1497.0,1.45261,625.666,2814.03,2812.68,1.45279,0.648938
1500.0,1.45109,625.831,2818.24,2816.89,1.45109,0.647238
1503.0,1.45016,625.996,2822.45,2821.09,1.45005,0.646198
1506.0,1.44892,626.161,2826.66,2825.3,1.44888,0.645028
1509.0,1.44793,626.326,2830.87,2829.5,1.44793,0.644078
1512.0,1.44522,626.491,2835.07,2833.7,1.44522,0.641368
1515.0,1.444,626.656,2839.27,2837.89,1.444,0.640148
1518.0,1.44232,626.821,2843.48,2842.09,1.44243,0.638578
1521.0,1.44156,626.986,2847.67,2846.28,1.44156,0.637708
1524.0,1.44014,627.151,2851.87,2850.47,1.44032,0.636468
1527.0,1.43992,627.316,2856.06,2854.66,1.43992,0.636068
1530.0,1.43738,627.481,2860.25,2858.85,1.43761,0.633758
1533.0,1.4373,627.646,2864.44,2863.03,1.43735,0.633498
1536.0,1.4376,627.811,2868.63,2867.21,1.43716,0.633308
1539.0,1.43723,627.976,2872.82,2871.39,1.43699,0.633138
1542.0,1.43636,628.141,2877,2875.57,1.4365,0.632648
1545.0,1.43674,628.306,2881.18,2879.74,1.4361,0.632248
1548.0,1.43272,628.471,2885.36,2883.92,1.43272,0.628868
1551.0,1.43248,628.636,2889.53,2888.09,1.43246,0.628608
1554.0,1.43067,628.801,2893.71,2892.26,1.43067,0.626818
1557.0,1.42938,628.966,2897.88,2896.42,1.42924,0.625388
1560.0,1.42946,629.131,2902.05,2900.59,1.42923,0.625378
1563.0,1.42462,629.296,2906.21,2904.75,1.42462,0.620768
1566.0,1.42479,629.461,2910.38,2908.91,1.42326,0.619408
1569.0,1.42105,629.626,2914.54,2913.06,1.42132,0.617468
1572.0,1.4205,629.791,2918.7,2917.22,1.42071,0.616858
1575.0,1.42048,629.956,2922.86,2921.37,1.42048,0.616628
1578.0,1.4181,630.121,2927.02,2925.52,1.4181,0.614248
1581.0,1.41693,630.286,2931.17,2929.67,1.4173,0.613448
1584.0,1.41666,630.451,2935.32,2933.82,1.41666,0.612808
1587.0,1.41431,630.616,2939.47,2937.96,1.41476,0.610908
1590.0,1.41612,630.781,2943.62,2942.11,1.41612,0.612268
1593.0,1.41659,630.946,2947.77,2946.25,1.41664,0.612788
1596.0,1.42037,631.111,2951.91,2950.38,1.42037,0.616518
1599.0,1.42808,631.276,2956.05,2954.52,1.42808,0.624228
1602.0,1.44126,631.441,2960.19,2958.65,1.44126,0.637408
1605.0,1.45784,631.606,2964.33,2962.79,1.45784,0.653988
1608.0,1.46749,631.771,2968.46,2966.92,1.46749,0.663638
1611.0,1.46543,631.936,2972.6,2971.04,1.46543,0.661578
1614.0,1.45128,632.101,2976.73,2975.17,1.45128,0.647428
1617.0,1.43089,632.266,2980.85,2979.29,1.43089,0.627038
1620.0,1.413,632.431,2984.98,2983.41,1.413,0.609148
1623.0,1.39916,632.596,2989.1,2987.53,1.39916,0.595308
1626.0,1.39444,632.761,2993.23,2991.65,1.3947,0.590848
1629.0,1.3972,632.926,2997.35,2995.76,1.3972,0.593348
1632.0,1.40449,633.091,3001.46,2999.87,1.40449,0.600638
1635.0,1.40497,633.256,3005.58,3003.98,1.40496,0.601108
1638.0,1.39867,633.421,3009.69,3008.09,1.39867,0.594818
1641.0,1.38828,633.585,3013.8,3012.2,1.38828,0.584428
1644.0,1.37541,633.75,3017.91,3016.3,1.37541,0.571558
1647.0,1.36816,633.915,3022.02,3020.4,1.36816,0.564308
1650.0,1.36225,634.08,3026.12,3024.5,1.36225,0.558398
1653.0,1.35721,634.245,3030.23,3028.6,1.35721,0.553358
1656.0,1.35369,634.41,3034.33,3032.69,1.35369,0.549838
1659.0,1.35077,634.575,3038.42,3036.79,1.35077,0.546918
1662.0,1.3499,634.74,3042.52,3040.88,1.34936,0.545508
1665.0,1.34599,634.905,3046.61,3044.97,1.34639,0.542538
1668.0,1.34336,635.07,3050.71,3049.05,1.34336,0.539508
1671.0,1.3412,635.235,3054.8,3053.14,1.3412,0.537348
1674.0,1.33836,635.4,3058.88,3057.22,1.33836,0.534508
1677.0,1.33469,635.565,3062.97,3061.3,1.33469,0.530838
1680.0,1.33296,635.73,3067.05,3065.38,1.33296,0.529108
1683.0,1.33078,635.895,3071.13,3069.45,1.33078,0.526928
1686.0,1.3287,636.06,3075.21,3073.53,1.3287,0.524848
1689.0,1.32617,636.225,3079.29,3077.6,1.32659,0.522738
1692.0,1.32428,636.39,3083.36,3081.67,1.32428,0.520428
1695.0,1.32193,636.555,3087.44,3085.74,1.32269,0.518838
1698.0,1.32229,636.72,3091.51,3089.8,1.32229,0.518438
1701.0,1.31838,636.885,3095.58,3093.87,1.31838,0.514528
1704.0,1.31672,637.05,3099.64,3097.93,1.31672,0.512868
1707.0,1.31611,637.215,3103.71,3101.99,1.31611,0.512258
1710.0,1.31392,637.38,3107.77,3106.04,1.31398,0.510128
1713.0,1.31191,637.545,3111.83,3110.1,1.31191,0.508058
1716.0,1.31055,637.71,3115.89,3114.15,1.31055,0.506698
1719.0,1.311,637.875,3119.94,3118.2,1.31009,0.506238
1722.0,1.30789,638.04,3124,3122.25,1.30799,0.504138
1725.0,1.30829,638.205,3128.05,3126.3,1.30799,0.504138
1728.0,1.30669,638.37,3132.1,3130.34,1.30702,0.503168
1731.0,1.30673,638.535,3136.15,3134.38,1.3068,0.502948
1734.0,1.30572,638.7,3140.19,3138.42,1.30572,0.501868
1737.0,1.3044,638.865,3144.24,3142.46,1.30419,0.500338
1740.0,1.30061,639.03,3148.28,3146.5,1.30061,0.496758
1743.0,1.2967,639.195,3152.32,3150.53,1.29691,0.493058
1746.0,1.29525,639.36,3156.35,3154.56,1.29525,0.491398
1749.0,1.29216,639.525,3160.39,3158.59,1.29216,0.488308
1752.0,1.2889,639.69,3164.42,3162.62,1.2889,0.485048
1755.0,1.28594,639.855,3168.45,3166.65,1.28594,0.482088
1758.0,1.28291,640.02,3172.48,3170.67,1.28291,0.479058
1761.0,1.28067,640.185,3176.51,3174.69,1.28067,0.476818
1764.0,1.27762,640.35,3180.53,3178.71,1.27762,0.473768
1767.0,1.2754,640.515,3184.55,3182.73,1.2754,0.471548
1770.0,1.27283,640.68,3188.58,3186.74,1.27283,0.468978
1773.0,1.26955,640.845,3192.59,3190.76,1.26955,0.465698
1776.0,1.26827,641.01,3196.61,3194.77,1.26868,0.464828
1779.0,1.26629,641.175,3200.62,3198.78,1.26629,0.462438
1782.0,1.26473,641.34,3204.64,3202.78,1.26473,0.460878
1785.0,1.26222,641.505,3208.65,3206.79,1.26222,0.458368
1788.0,1.25983,641.67,3212.65,3210.79,1.25983,0.455978
1791.0,1.25638,641.835,3216.66,3214.79,1.25638,0.452528
1794.0,1.25633,642,3220.66,3218.79,1.25566,0.451808
1797.0,1.25308,642.165,3224.67,3222.79,1.25308,0.449228
1800.0,1.25145,642.33,3228.67,3226.78,1.25145,0.447598
1803.0,1.24939,642.495,3232.66,3230.78,1.24939,0.445538
1806.0,1.2469,642.66,3236.66,3234.77,1.2469,0.443048
1809.0,1.24478,642.825,3240.65,3238.76,1.24478,0.440928
1812.0,1.24351,642.99,3244.65,3242.74,1.24351,0.439658
1815.0,1.2414,643.155,3248.64,3246.73,1.2414,0.437548
1818.0,1.23906,643.32,3252.62,3250.71,1.23906,0.435208
1821.0,1.23877,643.485,3256.61,3254.69,1.23857,0.434718
1824.0,1.23472,643.65,3260.59,3258.67,1.23472,0.430868
1827.0,1.23356,643.815,3264.57,3262.64,1.2335,0.429648
1830.0,1.23167,643.98,3268.55,3266.62,1.23167,0.427818
1833.0,1.22968,644.145,3272.53,3270.59,1.22968,0.425828
1836.0,1.22736,644.31,3276.51,3274.56,1.22736,0.423508
1839.0,1.22594,644.475,3280.48,3278.53,1.22594,0.422088
1842.0,1.22316,644.64,3284.45,3282.5,1.22316,0.419308
1845.0,1.2221,644.805,3288.42,3286.46,1.2221,0.418248
1848.0,1.22048,644.97,3292.39,3290.42,1.22048,0.416628
1851.0,1.21706,645.135,3296.35,3294.38,1.218,0.414148
1854.0,1.21774,645.3,3300.31,3298.34,1.21703,0.413178
1857.0,1.21384,645.465,3304.28,3302.3,1.21384,0.409988
1860.0,1.21129,645.63,3308.23,3306.25,1.21129,0.407438
1863.0,1.21034,645.795,3312.19,3310.2,1.21034,0.406488
1866.0,1.20884,645.96,3316.15,3314.15,1.20884,0.404988
1869.0,1.20749,646.125,3320.1,3318.1,1.2077,0.403848
1872.0,1.2073,646.29,3324.05,3322.05,1.2073,0.403448
1875.0,1.20421,646.455,3328,3325.99,1.20474,0.400888
1878.0,1.20455,646.619,3331.95,3329.93,1.20455,0.400698
1881.0,1.20133,646.784,3335.89,3333.87,1.20133,0.397478
1884.0,1.19849,646.949,3339.83,3337.81,1.1987,0.394848
1887.0,1.19822,647.114,3343.78,3341.74,1.19813,0.394278
1890.0,1.19659,647.279,3347.71,3345.68,1.19659,0.392738
1893.0,1.19521,647.444,3351.65,3349.61,1.19521,0.391358
1896.0,1.19259,647.609,3355.59,3353.54,1.1932,0.389348
1899.0,1.1916,647.774,3359.52,3357.47,1.1916,0.387748
1902.0,1.19036,647.939,3363.45,3361.39,1.19036,0.386508
1905.0,1.18773,648.104,3367.38,3365.32,1.18817,0.384318
1908.0,1.18668,648.269,3371.31,3369.24,1.18668,0.382828
1911.0,1.18538,648.434,3375.23,3373.16,1.18538,0.381528
1914.0,1.18292,648.599,3379.15,3377.08,1.18292,0.379068
1917.0,1.1809,648.764,3383.07,3380.99,1.1809,0.377048
1920.0,1.18026,648.929,3386.99,3384.91,1.17994,0.376088
1923.0,1.17654,649.094,3390.91,3388.82,1.17654,0.372688
1926.0,1.17487,649.259,3394.83,3392.73,1.17487,0.371018
1929.0,1.17536,649.424,3398.74,3396.64,1.1748,0.370948
1932.0,1.17365,649.589,3402.65,3400.54,1.17365,0.369798
1935.0,1.17058,649.754,3406.56,3404.45,1.17058,0.366728
1938.0,1.16702,649.919,3410.47,3408.35,1.16733,0.363478
1941.0,1.16701,650.084,3414.37,3412.25,1.16696,0.363108
1944.0,1.16474,650.249,3418.27,3416.15,1.16474,0.360888
1947.0,1.16254,650.414,3422.17,3420.04,1.16274,0.358888
1950.0,1.16158,650.579,3426.07,3423.94,1.16158,0.357728
1953.0,1.15977,650.744,3429.97,3427.83,1.1601,0.356248
1956.0,1.15908,650.909,3433.87,3431.72,1.15908,0.355228
1959.0,1.15671,651.074,3437.76,3435.61,1.15671,0.352858
1962.0,1.15418,651.239,3441.65,3439.49,1.15418,0.350328
1965.0,1.15335,651.404,3445.54,3443.38,1.15318,0.349328
1968.0,1.15254,651.569,3449.43,3447.26,1.15254,0.348688
1971.0,1.15045,651.734,3453.31,3451.14,1.15045,0.346598
1974.0,1.14903,651.899,3457.2,3455.02,1.14903,0.345178
1977.0,1.14695,652.064,3461.08,3458.89,1.1471,0.343248
1980.0,1.14613,652.229,3464.96,3462.77,1.14613,0.342278
1983.0,1.14453,652.394,3468.83,3466.64,1.14453,0.340678
1986.0,1.14242,652.559,3472.71,3470.51,1.14242,0.338568
1989.0,1.14049,652.724,3476.58,3474.38,1.14049,0.336638
1992.0,1.13966,652.889,3480.45,3478.25,1.13966,0.335808
1995.0,1.13863,653.054,3484.32,3482.11,1.13863,0.334778
1998.0,1.13704,653.219,3488.19,3485.97,1.13704,0.333188
2001.0,1.13464,653.384,3492.06,3489.83,1.13464,0.330788
2004.0,1.13399,653.549,3495.92,3493.69,1.13392,0.330068
2007.0,1.13303,653.714,3499.78,3497.55,1.13322,0.329368
2010.0,1.13253,653.879,3503.64,3501.4,1.13253,0.328678
2013.0,1.12961,654.044,3507.5,3505.26,1.12961,0.325758
2016.0,1.12688,654.209,3511.36,3509.11,1.12742,0.323568
2019.0,1.12666,654.374,3515.21,3512.96,1.12666,0.322808
2022.0,1.12339,654.539,3519.06,3516.8,1.12402,0.320168
2025.0,1.12403,654.704,3522.91,3520.65,1.12402,0.320168
2028.0,1.11984,654.869,3526.76,3524.49,1.11984,0.315988
2031.0,1.11992,655.034,3530.61,3528.33,1.11951,0.315658
2034.0,1.11878,655.199,3534.45,3532.17,1.11912,0.315268
2037.0,1.1169,655.364,3538.29,3536.01,1.1169,0.313048
2040.0,1.11558,655.529,3542.13,3539.85,1.11556,0.311708
2043.0,1.11315,655.694,3545.97,3543.68,1.11315,0.309298
2046.0,1.11157,655.859,3549.81,3547.51,1.11153,0.307678
2047.0,1.1114,655.914,3551.09,3548.79,1.1114,0.307548