File: data/processed/processed_data/2024-09-03/2024-09-03_aluminumfoil0.5cmaway_n_n_y_solid_1000_0_5.csv
Pixels #,Intensity (a.u.),Wavelength (nm),Raman shift (cm-1),Raman shift (cm-1) adjusted,Filtered Intensity (a.u.),Baselined Filtered Intensity (a.u.)
0.0,7.54709,543.337,392.223,393.994,7.54709,-0.0179834
3.0,7.54711,543.502,397.81,399.573,7.54761,-0.0174635
6.0,7.54817,543.667,403.394,405.15,7.54853,-0.0165438
9.0,7.54882,543.832,408.974,410.723,7.54881,-0.0162642
12.0,7.54764,543.997,414.551,416.293,7.54764,-0.0174348
15.0,7.54768,544.162,420.125,421.859,7.54768,-0.0173955
18.0,7.54687,544.327,425.695,427.422,7.54687,-0.0182064
21.0,7.54471,544.492,431.261,432.981,7.54586,-0.0192174
24.0,7.54861,544.657,436.825,438.537,7.54769,-0.0173886
27.0,7.54756,544.822,442.385,444.09,7.54769,-0.01739
30.0,7.54794,544.987,447.941,449.64,7.54794,-0.0171415
33.0,7.54876,545.152,453.494,455.186,7.54832,-0.0167632
36.0,7.5473,545.317,459.044,460.728,7.5477,-0.0173851
39.0,7.54832,545.482,464.591,466.268,7.54832,-0.016767
42.0,7.54781,545.647,470.134,471.804,7.54833,-0.0167592
45.0,7.54885,545.812,475.674,477.337,7.54833,-0.0167615
48.0,7.54801,545.977,481.21,482.866,7.54801,-0.0170839
51.0,7.54806,546.142,486.743,488.392,7.54866,-0.0164365
54.0,7.54729,546.307,492.273,493.915,7.54744,-0.0176593
57.0,7.55009,546.472,497.8,499.434,7.54957,-0.0155322
60.0,7.55042,546.637,503.323,504.95,7.54957,-0.0155352
63.0,7.54795,546.802,508.843,510.463,7.54876,-0.0163484
66.0,7.54751,546.967,514.359,515.972,7.54818,-0.0169318
69.0,7.55089,547.132,519.872,521.478,7.54994,-0.0151753
72.0,7.55138,547.297,525.382,526.981,7.55048,-0.0146389
75.0,7.54928,547.462,530.888,532.48,7.55048,-0.0146426
78.0,7.54896,547.627,536.392,537.976,7.55025,-0.0148765
81.0,7.55219,547.792,541.891,543.469,7.55087,-0.0142606
84.0,7.55083,547.957,547.388,548.958,7.55153,-0.0136047
87.0,7.55097,548.122,552.881,554.444,7.55153,-0.013609
90.0,7.55145,548.287,558.371,559.927,7.55145,-0.0136934
93.0,7.55196,548.452,563.858,565.407,7.5515,-0.0136479
96.0,7.55185,548.617,569.341,570.883,7.55124,-0.0139126
99.0,7.55126,548.782,574.821,576.356,7.55093,-0.0142273
102.0,7.55074,548.947,580.298,581.826,7.55082,-0.0143422
105.0,7.55346,549.112,585.771,587.292,7.55318,-0.0119872
108.0,7.54994,549.277,591.241,592.755,7.5511,-0.0140724
111.0,7.55243,549.442,596.708,598.215,7.55183,-0.0133477
114.0,7.55102,549.607,602.172,603.671,7.55102,-0.014163
117.0,7.54932,549.772,607.632,609.125,7.5504,-0.0147886
120.0,7.55477,549.937,613.089,614.575,7.55314,-0.0120542
123.0,7.55179,550.102,618.543,620.021,7.55295,-0.01225
126.0,7.55142,550.267,623.993,625.465,7.55164,-0.0135658
129.0,7.55198,550.432,629.44,630.905,7.55141,-0.0138018
132.0,7.54908,550.597,634.884,636.342,7.54908,-0.0161379
135.0,7.54917,550.762,640.325,641.776,7.54884,-0.0163842
138.0,7.55029,550.927,645.762,647.206,7.55029,-0.0149406
141.0,7.55178,551.092,651.197,652.633,7.55178,-0.0134571
144.0,7.55127,551.257,656.627,658.057,7.55153,-0.0137138
147.0,7.55208,551.422,662.055,663.478,7.55153,-0.0137206
150.0,7.55081,551.587,667.48,668.895,7.55081,-0.0144475
153.0,7.54972,551.752,672.901,674.309,7.54944,-0.0158245
156.0,7.54846,551.917,678.319,679.72,7.54979,-0.0154817
159.0,7.55119,552.082,683.733,685.128,7.55024,-0.015039
162.0,7.55048,552.247,689.145,690.533,7.55048,-0.0148065
165.0,7.55118,552.412,694.553,695.934,7.55118,-0.0141141
168.0,7.55011,552.577,699.958,701.332,7.55031,-0.0149918
171.0,7.55228,552.742,705.36,706.727,7.55185,-0.0134596
174.0,7.55132,552.907,710.758,712.118,7.55233,-0.0129876
177.0,7.55216,553.072,716.154,717.507,7.55216,-0.0131657
180.0,7.54948,553.237,721.546,722.892,7.54978,-0.0155539
183.0,7.55075,553.402,726.935,728.274,7.55067,-0.0146722
186.0,7.55167,553.567,732.32,733.652,7.55167,-0.0136807
189.0,7.55546,553.732,737.703,739.028,7.55495,-0.0104093
192.0,7.55526,553.897,743.082,744.4,7.55495,-0.010418
195.0,7.55348,554.062,748.458,749.769,7.55399,-0.0113868
198.0,7.55436,554.227,753.831,755.135,7.55436,-0.0110257
201.0,7.55517,554.392,759.201,760.498,7.55517,-0.0102248
204.0,7.55686,554.557,764.567,765.858,7.55686,-0.00854385
207.0,7.55566,554.722,769.93,771.214,7.55566,-0.00975302
210.0,7.55595,554.887,775.29,776.567,7.55595,-0.00947227
213.0,7.55909,555.052,780.647,781.917,7.55909,-0.00634162
216.0,7.5626,555.217,786.001,787.264,7.56215,-0.00329102
219.0,7.55961,555.382,791.352,792.608,7.56083,-0.00462045
222.0,7.56125,555.546,796.699,797.948,7.56125,-0.00420992
225.0,7.56397,555.711,802.043,803.285,7.5634,-0.00206944
228.0,7.56323,555.876,807.384,808.62,7.56323,-0.00224897
231.0,7.56494,556.041,812.722,813.951,7.56494,-0.000548525
234.0,7.56728,556.206,818.057,819.278,7.56702,0.00152192
237.0,7.56827,556.371,823.388,824.603,7.56819,0.00268237
240.0,7.56803,556.536,828.716,829.924,7.56847,0.00295284
243.0,7.57071,556.701,834.042,835.243,7.57071,0.00518334
246.0,7.57139,556.866,839.364,840.558,7.57153,0.00599389
249.0,7.57205,557.031,844.682,845.87,7.57205,0.00650449
252.0,7.5736,557.196,849.998,851.179,7.573,0.00744515
255.0,7.57207,557.361,855.311,856.485,7.57207,0.00650589
258.0,7.57006,557.526,860.62,861.787,7.57138,0.00580668
261.0,7.57259,557.691,865.927,867.087,7.5719,0.00631752
264.0,7.57164,557.856,871.23,872.383,7.57252,0.00692842
267.0,7.57345,558.021,876.53,877.676,7.57345,0.00784937
270.0,7.57268,558.186,881.827,882.966,7.57328,0.0076704
273.0,7.57106,558.351,887.12,888.253,7.57106,0.00544149
276.0,7.57063,558.516,892.411,893.537,7.57063,0.00500264
279.0,7.57283,558.681,897.698,898.818,7.57305,0.00741384
282.0,7.57225,558.846,902.983,904.095,7.57302,0.0073751
285.0,7.57419,559.011,908.264,909.37,7.57302,0.00736643
288.0,7.57254,559.176,913.542,914.641,7.57198,0.00631782
291.0,7.57366,559.341,918.817,919.909,7.57366,0.00798928
294.0,7.57438,559.506,924.089,925.174,7.57438,0.0087008
297.0,7.57488,559.671,929.358,930.436,7.57448,0.0087924
300.0,7.57385,559.836,934.624,935.695,7.57385,0.00815408
303.0,7.5721,560.001,939.886,940.951,7.57265,0.00694583
306.0,7.57566,560.166,945.146,946.204,7.57519,0.00947764
309.0,7.57442,560.331,950.402,951.454,7.57442,0.00869954
312.0,7.57362,560.496,955.656,956.7,7.57277,0.00704152
315.0,7.57161,560.661,960.906,961.944,7.57194,0.00620356
318.0,7.57047,560.826,966.153,967.184,7.57269,0.00694565
321.0,7.57395,560.991,971.397,972.421,7.57361,0.0078578
324.0,7.57364,561.156,976.638,977.655,7.57325,0.00749002
327.0,7.57138,561.321,981.876,982.887,7.57205,0.0062823
330.0,7.57112,561.486,987.111,988.115,7.57196,0.00618464
333.0,7.57131,561.651,992.342,993.34,7.57186,0.00607704
336.0,7.57064,561.816,997.571,998.562,7.57186,0.00606948
339.0,7.57325,561.981,1002.8,1003.78,7.57184,0.00604198
342.0,7.57155,562.146,1008.02,1009,7.57184,0.00603454
345.0,7.57303,562.311,1013.24,1014.21,7.57354,0.00772715
348.0,7.57318,562.476,1018.45,1019.42,7.57351,0.00768984
351.0,7.5736,562.641,1023.67,1024.63,7.5736,0.0077726
354.0,7.57544,562.806,1028.88,1029.83,7.57536,0.00952543
357.0,7.57568,562.971,1034.09,1035.03,7.57602,0.0101783
360.0,7.57631,563.136,1039.29,1040.23,7.57602,0.0101713
363.0,7.57491,563.301,1044.49,1045.42,7.57546,0.00960444
366.0,7.57541,563.466,1049.69,1050.61,7.57541,0.00954763
369.0,7.57551,563.631,1054.88,1055.8,7.575,0.0091309
372.0,7.5762,563.796,1060.08,1060.99,7.57596,0.0100843
375.0,7.57495,563.961,1065.27,1066.17,7.57534,0.00945769
378.0,7.57478,564.126,1070.45,1071.35,7.57478,0.00889122
381.0,7.57541,564.291,1075.63,1076.52,7.57454,0.00864483
384.0,7.57339,564.456,1080.81,1081.7,7.57326,0.00735851
387.0,7.57241,564.621,1085.99,1086.87,7.57277,0.00686227
390.0,7.57354,564.786,1091.16,1092.03,7.57329,0.00737608
393.0,7.57006,564.951,1096.34,1097.2,7.57161,0.00568996
396.0,7.57088,565.116,1101.5,1102.36,7.57091,0.0049839
399.0,7.57253,565.281,1106.67,1107.52,7.57227,0.00633787
402.0,7.57353,565.446,1111.83,1112.67,7.57294,0.00700191
405.0,7.57181,565.611,1116.99,1117.82,7.57248,0.006536
408.0,7.57301,565.776,1122.14,1122.97,7.57301,0.00706015
411.0,7.57214,565.941,1127.3,1128.12,7.57316,0.00720437
414.0,7.57277,566.106,1132.45,1133.26,7.57277,0.00680865
417.0,7.57061,566.271,1137.59,1138.4,7.57135,0.00538298
420.0,7.57268,566.436,1142.74,1143.54,7.57237,0.00639737
423.0,7.57061,566.601,1147.88,1148.67,7.57209,0.00611181
426.0,7.57235,566.766,1153.02,1153.81,7.57313,0.0071463
429.0,7.57467,566.931,1158.15,1158.93,7.57467,0.00868085
432.0,7.57529,567.096,1163.28,1164.06,7.57529,0.00929548
435.0,7.57507,567.261,1168.41,1169.18,7.57416,0.00816018
438.0,7.57147,567.426,1173.54,1174.3,7.57288,0.00687497
441.0,7.57358,567.591,1178.66,1179.42,7.57358,0.00756981
444.0,7.57302,567.756,1183.78,1184.53,7.57394,0.00792471
447.0,7.57471,567.921,1188.9,1189.64,7.57471,0.00868969
450.0,7.57341,568.086,1194.01,1194.75,7.57421,0.00818475
453.0,7.57379,568.251,1199.12,1199.85,7.57379,0.00775988
456.0,7.57454,568.416,1204.23,1204.95,7.57447,0.00843507
459.0,7.57349,568.58,1209.33,1210.05,7.57447,0.00843035
462.0,7.57606,568.745,1214.44,1215.15,7.57459,0.00854569
465.0,7.57253,568.91,1219.53,1220.24,7.57328,0.00723111
468.0,7.5742,569.075,1224.63,1225.33,7.57328,0.0072266
471.0,7.5718,569.24,1229.72,1230.42,7.57294,0.00688216
474.0,7.57469,569.405,1234.81,1235.5,7.57328,0.00721778
477.0,7.57193,569.57,1239.9,1240.58,7.57193,0.00586347
480.0,7.57444,569.735,1244.99,1245.66,7.57444,0.00836921
483.0,7.5734,569.9,1250.07,1250.73,7.57371,0.00763502
486.0,7.57339,570.065,1255.14,1255.8,7.5731,0.0070209
489.0,7.57218,570.23,1260.22,1260.87,7.57278,0.00669684
492.0,7.57258,570.395,1265.29,1265.94,7.57278,0.00669285
495.0,7.57239,570.56,1270.36,1271,7.57239,0.00629892
498.0,7.57175,570.725,1275.43,1276.06,7.57161,0.00551504
501.0,7.57085,570.89,1280.49,1281.12,7.57161,0.00551121
504.0,7.57071,571.055,1285.55,1286.17,7.57071,0.00460744
507.0,7.56819,571.22,1290.61,1291.22,7.56854,0.00243369
510.0,7.56775,571.385,1295.67,1296.27,7.56876,0.00264997
513.0,7.57355,571.55,1300.72,1301.32,7.57168,0.00556628
516.0,7.57044,571.715,1305.77,1306.36,7.57154,0.00542264
519.0,7.57285,571.88,1310.81,1311.4,7.57268,0.00655905
522.0,7.57283,572.045,1315.86,1316.44,7.57269,0.00656551
525.0,7.57378,572.21,1320.9,1321.47,7.57319,0.00706204
528.0,7.57344,572.375,1325.94,1326.5,7.57319,0.00705863
531.0,7.56875,572.54,1330.97,1331.53,7.57035,0.00421529
534.0,7.57414,572.705,1336,1336.56,7.57266,0.00652197
537.0,7.57224,572.87,1341.03,1341.58,7.57224,0.00609872
540.0,7.57156,573.035,1346.06,1346.6,7.57243,0.00628552
543.0,7.574,573.2,1351.08,1351.61,7.574,0.00785237
546.0,7.5765,573.365,1356.1,1356.63,7.57604,0.00988929
549.0,7.5703,573.53,1361.12,1361.64,7.57189,0.00573631
552.0,7.57345,573.695,1366.13,1366.65,7.57189,0.00573337
555.0,7.57047,573.86,1371.14,1371.65,7.57218,0.00602049
558.0,7.57359,574.025,1376.15,1376.65,7.57226,0.00609766
561.0,7.57402,574.19,1381.16,1381.65,7.57289,0.00672489
564.0,7.5724,574.355,1386.16,1386.65,7.57329,0.00712218
567.0,7.57331,574.52,1391.16,1391.64,7.57331,0.00713953
570.0,7.57227,574.685,1396.16,1396.63,7.5724,0.00622694
573.0,7.57427,574.85,1401.15,1401.62,7.57368,0.00750441
576.0,7.57436,575.015,1406.14,1406.61,7.57382,0.00764195
579.0,7.57252,575.18,1411.13,1411.59,7.57277,0.00658956
582.0,7.57269,575.345,1416.12,1416.57,7.5728,0.00661723
585.0,7.57383,575.51,1421.1,1421.54,7.57288,0.00669496
588.0,7.57246,575.675,1426.08,1426.52,7.57233,0.00614275
591.0,7.57235,575.84,1431.06,1431.49,7.57201,0.0058206
594.0,7.57432,576.005,1436.03,1436.46,7.57303,0.0068385
597.0,7.57176,576.17,1441,1441.42,7.57176,0.00556646
600.0,7.57079,576.335,1445.97,1446.38,7.57146,0.00526447
603.0,7.57223,576.5,1450.94,1451.34,7.57303,0.00683254
606.0,7.57057,576.665,1455.9,1456.3,7.57104,0.00484066
609.0,7.57224,576.83,1460.86,1461.25,7.57224,0.00603883
612.0,7.57079,576.995,1465.82,1466.2,7.5723,0.00609705
615.0,7.57231,577.16,1470.77,1471.15,7.57198,0.00577533
618.0,7.57297,577.325,1475.72,1476.1,7.57297,0.00676365
621.0,7.57386,577.49,1480.67,1481.04,7.57386,0.00765204
624.0,7.57394,577.655,1485.62,1485.98,7.57384,0.00763049
627.0,7.57185,577.82,1490.56,1490.91,7.57228,0.00606902
630.0,7.57206,577.985,1495.5,1495.85,7.57228,0.0060676
633.0,7.57285,578.15,1500.44,1500.78,7.57288,0.00666623
636.0,7.57276,578.315,1505.37,1505.71,7.57311,0.00689492
639.0,7.57216,578.48,1510.3,1510.63,7.57325,0.00703368
642.0,7.57243,578.645,1515.23,1515.55,7.57247,0.00625249
645.0,7.57338,578.81,1520.16,1520.47,7.57262,0.00640136
648.0,7.57115,578.975,1525.08,1525.39,7.57262,0.00640029
651.0,7.57266,579.14,1530,1530.31,7.57329,0.00706928
654.0,7.57371,579.305,1534.92,1535.22,7.57371,0.00748832
657.0,7.57444,579.47,1539.83,1540.13,7.57444,0.00821743
660.0,7.57411,579.635,1544.75,1545.03,7.57467,0.00844662
663.0,7.57327,579.8,1549.65,1549.93,7.57327,0.00704588
666.0,7.57279,579.965,1554.56,1554.83,7.57311,0.00688521
669.0,7.57302,580.13,1559.47,1559.73,7.57328,0.0070546
672.0,7.57357,580.295,1564.37,1564.63,7.57357,0.00734405
675.0,7.57277,580.46,1569.26,1569.52,7.57277,0.00654356
678.0,7.57272,580.625,1574.16,1574.41,7.57181,0.00558314
681.0,7.57281,580.79,1579.05,1579.29,7.57281,0.00658277
684.0,7.5729,580.955,1583.94,1584.18,7.5729,0.00667245
687.0,7.57252,581.12,1588.83,1589.06,7.57272,0.0064922
690.0,7.57488,581.285,1593.71,1593.94,7.57406,0.00783201
693.0,7.57239,581.45,1598.59,1598.81,7.57346,0.00723188
696.0,7.57347,581.614,1603.47,1603.68,7.57347,0.00724182
699.0,7.57252,581.779,1608.35,1608.55,7.57252,0.00629182
702.0,7.57233,581.944,1613.22,1613.42,7.57161,0.00538189
705.0,7.5715,582.109,1618.09,1618.28,7.57152,0.00529201
708.0,7.57241,582.274,1622.96,1623.15,7.57354,0.00731219
711.0,7.57687,582.439,1627.83,1628,7.57415,0.00792243
714.0,7.57331,582.604,1632.69,1632.86,7.57415,0.00792274
717.0,7.57576,582.769,1637.55,1637.71,7.57446,0.00823313
720.0,7.5701,582.934,1642.4,1642.56,7.57015,0.0039236
723.0,7.57241,583.099,1647.26,1647.41,7.57241,0.00618411
726.0,7.57389,583.264,1652.11,1652.26,7.57389,0.00766467
729.0,7.57519,583.429,1656.96,1657.1,7.57374,0.0075153
732.0,7.57208,583.594,1661.8,1661.94,7.57354,0.00731601
735.0,7.57429,583.759,1666.65,1666.77,7.57408,0.00785677
738.0,7.57201,583.924,1671.49,1671.61,7.57201,0.00578761
741.0,7.57444,584.089,1676.32,1676.44,7.57242,0.00619851
744.0,7.57122,584.254,1681.16,1681.27,7.57242,0.00619947
747.0,7.57245,584.419,1685.99,1686.09,7.57237,0.00615048
750.0,7.57262,584.584,1690.82,1690.92,7.57237,0.00615155
753.0,7.57103,584.749,1695.65,1695.74,7.57179,0.00557267
756.0,7.57307,584.914,1700.47,1700.55,7.57298,0.00676384
759.0,7.5728,585.079,1705.29,1705.37,7.57266,0.00644507
762.0,7.5708,585.244,1710.11,1710.18,7.57133,0.00511635
765.0,7.57299,585.409,1714.92,1714.99,7.57148,0.00526769
768.0,7.57278,585.574,1719.74,1719.8,7.57273,0.00651907
771.0,7.57118,585.739,1724.55,1724.6,7.57209,0.00588052
774.0,7.57334,585.904,1729.35,1729.4,7.57291,0.00670201
777.0,7.57408,586.069,1734.16,1734.2,7.57375,0.00754357
780.0,7.56911,586.234,1738.96,1739,7.56964,0.00343519
783.0,7.57167,586.399,1743.76,1743.79,7.57167,0.00546685
786.0,7.57206,586.564,1748.56,1748.58,7.57224,0.00603855
789.0,7.57472,586.729,1753.35,1753.37,7.57401,0.00781031
792.0,7.57217,586.894,1758.14,1758.15,7.57308,0.00688214
795.0,7.57399,587.059,1762.93,1762.94,7.57297,0.00677403
798.0,7.57175,587.224,1767.72,1767.72,7.57284,0.00664598
801.0,7.57271,587.389,1772.5,1772.49,7.57284,0.00664799
804.0,7.57323,587.554,1777.28,1777.27,7.57277,0.00658007
807.0,7.56931,587.719,1782.06,1782.04,7.56981,0.0036222
810.0,7.57238,587.884,1786.83,1786.81,7.57238,0.00619438
813.0,7.57298,588.049,1791.61,1791.57,7.57298,0.0067966
816.0,7.57139,588.214,1796.38,1796.34,7.57212,0.00593888
819.0,7.57144,588.379,1801.14,1801.1,7.5727,0.00652121
822.0,7.57318,588.544,1805.91,1805.86,7.57318,0.0070036
825.0,7.57231,588.709,1810.67,1810.61,7.57231,0.00613605
828.0,7.57379,588.874,1815.43,1815.37,7.57379,0.00761856
831.0,7.57437,589.039,1820.19,1820.12,7.57396,0.00779114
834.0,7.57127,589.204,1824.94,1824.86,7.57174,0.00557378
837.0,7.57182,589.369,1829.69,1829.61,7.57153,0.00536647
840.0,7.5721,589.534,1834.44,1834.35,7.57153,0.00536921
843.0,7.57051,589.699,1839.18,1839.09,7.57051,0.004352
846.0,7.572,589.864,1843.93,1843.83,7.57081,0.00465484
849.0,7.57154,590.029,1848.67,1848.56,7.572,0.00584772
852.0,7.57364,590.194,1853.41,1853.29,7.57364,0.00749065
855.0,7.57262,590.359,1858.14,1858.02,7.5736,0.00745365
858.0,7.57387,590.524,1862.87,1862.75,7.5736,0.00745671
861.0,7.57201,590.689,1867.6,1867.47,7.57385,0.00770985
864.0,7.57451,590.854,1872.33,1872.2,7.57409,0.00795304
867.0,7.57376,591.019,1877.06,1876.91,7.57408,0.00794631
870.0,7.57403,591.184,1881.78,1881.63,7.57401,0.00787964
873.0,7.57326,591.349,1886.5,1886.34,7.57276,0.00663305
876.0,7.57221,591.514,1891.21,1891.05,7.57221,0.00608651
879.0,7.57008,591.679,1895.93,1895.76,7.57068,0.00456003
882.0,7.5733,591.844,1900.64,1900.47,7.5733,0.00718359
885.0,7.57176,592.009,1905.35,1905.17,7.57176,0.00564721
888.0,7.57366,592.174,1910.05,1909.87,7.57294,0.00683089
891.0,7.57214,592.339,1914.76,1914.57,7.57214,0.00603462
894.0,7.57367,592.504,1919.46,1919.26,7.57149,0.00538841
897.0,7.56913,592.669,1924.16,1923.96,7.57151,0.00541226
900.0,7.57283,592.834,1928.85,1928.64,7.57301,0.00691615
903.0,7.57329,592.999,1933.55,1933.33,7.57329,0.0072001
906.0,7.57232,593.164,1938.24,1938.02,7.5718,0.00571411
909.0,7.57155,593.329,1942.93,1942.7,7.57161,0.00552817
912.0,7.57185,593.494,1947.61,1947.38,7.57165,0.00557228
915.0,7.57053,593.659,1952.29,1952.05,7.57053,0.00445645
918.0,7.57041,593.824,1956.97,1956.73,7.57052,0.00445066
921.0,7.57303,593.989,1961.65,1961.4,7.57246,0.00639491
924.0,7.5725,594.154,1966.33,1966.07,7.57246,0.00639922
927.0,7.5722,594.319,1971,1970.73,7.5722,0.00614359
930.0,7.57139,594.484,1975.67,1975.4,7.57139,0.00533801
933.0,7.57249,594.648,1980.33,1980.06,7.57301,0.00696248
936.0,7.56981,594.813,1985,1984.72,7.57165,0.00560701
939.0,7.57588,594.978,1989.66,1989.37,7.5737,0.00766159
942.0,7.57305,595.143,1994.32,1994.03,7.57305,0.00701624
945.0,7.56933,595.308,1998.98,1998.68,7.57046,0.00443096
948.0,7.57184,595.473,2003.63,2003.33,7.57089,0.00486572
951.0,7.57182,595.638,2008.28,2007.97,7.57182,0.00580052
954.0,7.57309,595.803,2012.93,2012.62,7.57292,0.00690537
957.0,7.57045,595.968,2017.58,2017.26,7.57033,0.00432029
960.0,7.57122,596.133,2022.22,2021.89,7.57006,0.00405524
963.0,7.57323,596.298,2026.86,2026.53,7.57193,0.00593023
966.0,7.57137,596.463,2031.5,2031.16,7.57193,0.00593528
969.0,7.57253,596.628,2036.14,2035.79,7.57253,0.00654039
972.0,7.5738,596.793,2040.77,2040.42,7.5736,0.00761555
975.0,7.57113,596.958,2045.4,2045.05,7.57129,0.00531077
978.0,7.57297,597.123,2050.03,2049.67,7.57129,0.00531605
981.0,7.5693,597.288,2054.66,2054.29,7.57089,0.00492138
984.0,7.57211,597.453,2059.28,2058.91,7.57195,0.00598674
987.0,7.5717,597.618,2063.9,2063.52,7.5717,0.00574216
990.0,7.56958,597.783,2068.52,2068.13,7.57068,0.00472762
993.0,7.57114,597.948,2073.14,2072.74,7.57176,0.00581312
996.0,7.57358,598.113,2077.75,2077.35,7.57225,0.00630868
999.0,7.5723,598.278,2082.36,2081.95,7.57173,0.00579429
1002.0,7.57014,598.443,2086.97,2086.56,7.57055,0.00461996
1005.0,7.57026,598.608,2091.57,2091.16,7.57024,0.00431567
1008.0,7.57098,598.773,2096.18,2095.75,7.57098,0.00506141
1011.0,7.57113,598.938,2100.78,2100.35,7.57113,0.0052172
1014.0,7.57018,599.103,2105.38,2104.94,7.56955,0.00364304
1017.0,7.56732,599.268,2109.97,2109.53,7.56822,0.0023189
1020.0,7.57339,599.433,2114.56,2114.12,7.57216,0.0062648
1023.0,7.57298,599.598,2119.15,2118.7,7.57204,0.00615075
1026.0,7.56979,599.763,2123.74,2123.28,7.57058,0.00469677
1029.0,7.57179,599.928,2128.33,2127.86,7.57173,0.00585282
1032.0,7.5707,600.093,2132.91,2132.44,7.5707,0.00482893
1035.0,7.56878,600.258,2137.49,2137.01,7.56878,0.00291508
1038.0,7.57047,600.423,2142.07,2141.59,7.57019,0.00433127
1041.0,7.5715,600.588,2146.64,2146.15,7.57091,0.00505748
1044.0,7.5696,600.753,2151.22,2150.72,7.5696,0.00375374
1047.0,7.57105,600.918,2155.79,2155.29,7.5703,0.00446004
1050.0,7.56905,601.083,2160.35,2159.85,7.57046,0.00462638
1053.0,7.57126,601.248,2164.92,2164.41,7.57121,0.00538275
1056.0,7.57278,601.413,2169.48,2168.96,7.57093,0.00510918
1059.0,7.56983,601.578,2174.04,2173.52,7.56983,0.00401565
1062.0,7.569,601.743,2178.6,2178.07,7.569,0.00319216
1065.0,7.56972,601.908,2183.16,2182.62,7.56972,0.0039187
1068.0,7.56924,602.073,2187.71,2187.17,7.56924,0.00344528
1071.0,7.5709,602.238,2192.26,2191.71,7.57081,0.00502189
1074.0,7.57101,602.403,2196.81,2196.25,7.57057,0.00478855
1077.0,7.56926,602.568,2201.35,2200.79,7.56963,0.00385525
1080.0,7.57082,602.733,2205.89,2205.33,7.57071,0.00494198
1083.0,7.57088,602.898,2210.43,2209.86,7.57052,0.00475876
1086.0,7.57202,603.063,2214.97,2214.4,7.57159,0.00583558
1089.0,7.57144,603.228,2219.51,2218.92,7.57088,0.00513245
1092.0,7.56678,603.393,2224.04,2223.45,7.56846,0.00271937
1095.0,7.57059,603.558,2228.57,2227.98,7.56934,0.00360631
1098.0,7.56702,603.723,2233.1,2232.5,7.56843,0.00270329
1101.0,7.57214,603.888,2237.62,2237.02,7.57214,0.00642029
1104.0,7.57133,604.053,2242.15,2241.54,7.57133,0.00561734
1107.0,7.56947,604.218,2246.67,2246.05,7.56927,0.00356444
1110.0,7.56927,604.383,2251.19,2250.56,7.56927,0.00357157
1113.0,7.57229,604.548,2255.7,2255.07,7.57123,0.00553873
1116.0,7.57108,604.713,2260.21,2259.58,7.57123,0.00554595
1119.0,7.56913,604.878,2264.72,2264.08,7.56913,0.00345322
1122.0,7.56864,605.043,2269.23,2268.59,7.56864,0.00297051
1125.0,7.56825,605.208,2273.74,2273.09,7.56927,0.00360784
1128.0,7.57043,605.373,2278.24,2277.58,7.57043,0.0047752
1131.0,7.56959,605.538,2282.74,2282.08,7.56959,0.0039426
1134.0,7.56848,605.703,2287.24,2286.57,7.56951,0.00387004
1137.0,7.56955,605.868,2291.74,2291.06,7.5702,0.00456751
1140.0,7.56879,606.033,2296.23,2295.55,7.5702,0.00457502
1143.0,7.56954,606.198,2300.72,2300.03,7.56963,0.00401257
1146.0,7.56936,606.363,2305.21,2304.52,7.56903,0.00342015
1149.0,7.56941,606.528,2309.7,2309,7.5688,0.00319776
1152.0,7.56736,606.693,2314.18,2313.47,7.56873,0.00313541
1155.0,7.57008,606.858,2318.66,2317.95,7.56959,0.00400307
1158.0,7.57021,607.023,2323.14,2322.42,7.5701,0.00452078
1161.0,7.57028,607.188,2327.62,2326.89,7.56977,0.00419852
1164.0,7.56753,607.353,2332.09,2331.36,7.56888,0.0033163
1167.0,7.56959,607.518,2336.56,2335.83,7.56867,0.00311411
1170.0,7.56769,607.682,2341.03,2340.29,7.56858,0.00303195
1173.0,7.56952,607.847,2345.5,2344.75,7.56859,0.00304981
1176.0,7.56862,608.012,2349.96,2349.21,7.56862,0.0030877
1179.0,7.56782,608.177,2354.42,2353.67,7.56782,0.00229562
1182.0,7.56866,608.342,2358.88,2358.12,7.56866,0.00314357
1185.0,7.56743,608.507,2363.34,2362.57,7.56783,0.00232153
1188.0,7.56545,608.672,2367.79,2367.02,7.5675,0.00199952
1191.0,7.569,608.837,2372.25,2371.47,7.5679,0.00240752
1194.0,7.56905,609.002,2376.7,2375.91,7.5684,0.00291554
1197.0,7.56797,609.167,2381.14,2380.35,7.56849,0.00301359
1200.0,7.56916,609.332,2385.59,2384.79,7.56916,0.00369167
1203.0,7.56822,609.497,2390.03,2389.23,7.5675,0.00203979
1206.0,7.56758,609.662,2394.47,2393.66,7.56744,0.00198792
1209.0,7.56902,609.827,2398.91,2398.09,7.56902,0.00357608
1212.0,7.56959,609.992,2403.34,2402.52,7.57051,0.00507426
1215.0,7.56963,610.157,2407.78,2406.95,7.56963,0.00420248
1218.0,7.56638,610.322,2412.21,2411.38,7.56701,0.00159074
1221.0,7.56991,610.487,2416.63,2415.8,7.56927,0.003859
1224.0,7.5652,610.652,2421.06,2420.22,7.56667,0.00126731
1227.0,7.56632,610.817,2425.48,2424.64,7.56632,0.000925616
1230.0,7.56826,610.982,2429.9,2429.05,7.56826,0.00287394
1233.0,7.56977,611.147,2434.32,2433.46,7.56936,0.00398228
1236.0,7.5688,611.312,2438.74,2437.87,7.5688,0.00343066
1239.0,7.56784,611.477,2443.15,2442.28,7.56784,0.00247906
1242.0,7.5667,611.642,2447.56,2446.69,7.5667,0.00134749
1245.0,7.56509,611.807,2451.97,2451.09,7.56555,0.000205937
1248.0,7.56795,611.972,2456.38,2455.49,7.56707,0.00173439
1251.0,7.56698,612.137,2460.78,2459.89,7.56707,0.00174285
1254.0,7.56733,612.302,2465.19,2464.29,7.56764,0.00232134
1257.0,7.56719,612.467,2469.59,2468.68,7.56719,0.00187984
1260.0,7.56615,612.632,2473.98,2473.07,7.56615,0.000848362
1263.0,7.56659,612.797,2478.38,2477.46,7.56669,0.00139689
1266.0,7.56752,612.962,2482.77,2481.85,7.56675,0.00146544
1269.0,7.56749,613.127,2487.16,2486.23,7.56749,0.00221399
1272.0,7.56693,613.292,2491.55,2490.61,7.56693,0.00166257
1275.0,7.56533,613.457,2495.93,2494.99,7.5668,0.00154116
1278.0,7.5693,613.622,2500.32,2499.37,7.56779,0.00253976
1281.0,7.56436,613.787,2504.7,2503.75,7.56557,0.000328387
1284.0,7.56743,613.952,2509.07,2508.12,7.56743,0.00219701
1287.0,7.5677,614.117,2513.45,2512.49,7.5677,0.00247566
1290.0,7.56685,614.282,2517.82,2516.86,7.56693,0.00171432
1293.0,7.56751,614.447,2522.19,2521.22,7.56751,0.00230301
1296.0,7.56698,614.612,2526.56,2525.59,7.56735,0.00215171
1299.0,7.56635,614.777,2530.93,2529.95,7.56638,0.00119044
1302.0,7.56467,614.942,2535.29,2534.3,7.56638,0.00119918
1305.0,7.56879,615.107,2539.66,2538.66,7.5669,0.00172792
1308.0,7.56453,615.272,2544.02,2543.01,7.56652,0.00135669
1311.0,7.56714,615.437,2548.37,2547.37,7.56649,0.00133546
1314.0,7.56422,615.602,2552.73,2551.72,7.56499,-0.000155757
1317.0,7.56604,615.767,2557.08,2556.06,7.56604,0.000903024
1320.0,7.56673,615.932,2561.43,2560.41,7.56652,0.00139181
1323.0,7.56666,616.097,2565.78,2564.75,7.56555,0.000430611
1326.0,7.56815,616.262,2570.12,2569.09,7.56652,0.00140942
1329.0,7.56594,616.427,2574.47,2573.43,7.56652,0.00141825
1332.0,7.56528,616.592,2578.81,2577.76,7.56528,0.000187082
1335.0,7.56394,616.757,2583.15,2582.09,7.56394,-0.00114408
1338.0,7.56779,616.922,2587.48,2586.42,7.56732,0.00224476
1341.0,7.56595,617.087,2591.82,2590.75,7.56599,0.000923611
1344.0,7.56612,617.252,2596.15,2595.08,7.56599,0.000932476
1347.0,7.56525,617.417,2600.48,2599.4,7.56584,0.000791349
1350.0,7.56688,617.582,2604.8,2603.72,7.56602,0.000980228
1353.0,7.56423,617.747,2609.13,2608.04,7.56658,0.00154912
1356.0,7.56699,617.912,2613.45,2612.36,7.56722,0.00219801
1359.0,7.56692,618.077,2617.77,2616.67,7.56692,0.00190693
1362.0,7.56495,618.242,2622.09,2620.99,7.56514,0.000135865
1365.0,7.56468,618.407,2626.4,2625.3,7.56533,0.000334797
1368.0,7.56504,618.572,2630.72,2629.6,7.56522,0.00023373
1371.0,7.56222,618.737,2635.03,2633.91,7.56222,-0.00275734
1374.0,7.56253,618.902,2639.34,2638.21,7.56253,-0.00243843
1377.0,7.56579,619.067,2643.64,2642.51,7.56508,0.000120459
1380.0,7.56323,619.232,2647.95,2646.81,7.56323,-0.00172065
1383.0,7.5628,619.397,2652.25,2651.11,7.56321,-0.00173177
1386.0,7.56636,619.562,2656.55,2655.4,7.56636,0.00142709
1389.0,7.56829,619.727,2660.84,2659.69,7.56793,0.00300596
1392.0,7.56363,619.892,2665.14,2663.98,7.56452,-0.000395147
1395.0,7.56779,620.057,2669.43,2668.27,7.56691,0.00200374
1398.0,7.56577,620.222,2673.72,2672.55,7.56577,0.000872653
1401.0,7.56361,620.387,2678.01,2676.84,7.56445,-0.000438429
1404.0,7.56494,620.551,2682.29,2681.12,7.56453,-0.000349514
1407.0,7.56248,620.716,2686.58,2685.39,7.56453,-0.000340603
1410.0,7.56474,620.881,2690.86,2689.67,7.56443,-0.000431699
1413.0,7.56355,621.046,2695.14,2693.94,7.56377,-0.0010828
1416.0,7.56456,621.211,2699.41,2698.21,7.56402,-0.000823912
1419.0,7.56416,621.376,2703.69,2702.48,7.56416,-0.000675028
1422.0,7.56414,621.541,2707.96,2706.75,7.56414,-0.000686149
1425.0,7.56257,621.706,2712.23,2711.01,7.56257,-0.00224728
1428.0,7.56272,621.871,2716.5,2715.27,7.56272,-0.00208842
1431.0,7.56363,622.036,2720.76,2719.53,7.56363,-0.00116959
1434.0,7.56375,622.201,2725.03,2723.79,7.56375,-0.00104077
1437.0,7.56511,622.366,2729.29,2728.05,7.5646,-0.000181964
1440.0,7.56223,622.531,2733.54,2732.3,7.56305,-0.00172316
1443.0,7.56447,622.696,2737.8,2736.55,7.56443,-0.000334371
1446.0,7.56506,622.861,2742.05,2740.8,7.56443,-0.000325587
1449.0,7.56351,623.026,2746.31,2745.04,7.56351,-0.00123681
1452.0,7.56178,623.191,2750.56,2749.29,7.56178,-0.00295804
1455.0,7.56365,623.356,2754.8,2753.53,7.563,-0.0017293
1458.0,7.56136,623.521,2759.05,2757.77,7.563,-0.00172058
1461.0,7.56157,623.686,2763.29,2762.01,7.56294,-0.00177188
1464.0,7.56336,623.851,2767.53,2766.24,7.56297,-0.00173321
1467.0,7.56122,624.016,2771.77,2770.47,7.56122,-0.00347455
1470.0,7.56128,624.181,2776,2774.7,7.56128,-0.00340592
1473.0,7.56176,624.346,2780.24,2778.93,7.56263,-0.00204732
1476.0,7.56247,624.511,2784.47,2783.16,7.56247,-0.00219874
1479.0,7.56169,624.676,2788.7,2787.38,7.56204,-0.00262019
1482.0,7.56252,624.841,2792.93,2791.6,7.56279,-0.00186165
1485.0,7.56284,625.006,2797.15,2795.82,7.56284,-0.00180314
1488.0,7.56108,625.171,2801.37,2800.04,7.56148,-0.00315464
1491.0,7.56365,625.336,2805.59,2804.25,7.56287,-0.00175617
1494.0,7.56165,625.501,2809.81,2808.47,7.56259,-0.00202772
1497.0,7.56306,625.666,2814.03,2812.68,7.56259,-0.00201929
1500.0,7.56059,625.831,2818.24,2816.89,7.56059,-0.00401088
1503.0,7.56108,625.996,2822.45,2821.09,7.56012,-0.0044725
1506.0,7.55922,626.161,2826.66,2825.3,7.56059,-0.00399416
1509.0,7.56223,626.326,2830.87,2829.5,7.5611,-0.00347586
1512.0,7.56243,626.491,2835.07,2833.7,7.5624,-0.00216759
1515.0,7.56103,626.656,2839.27,2837.89,7.5615,-0.00305934
1518.0,7.56124,626.821,2843.48,2842.09,7.56127,-0.00328111
1521.0,7.5622,626.986,2847.67,2846.28,7.56186,-0.00268292
1524.0,7.56149,627.151,2851.87,2850.47,7.56208,-0.00245475
1527.0,7.56248,627.316,2856.06,2854.66,7.56208,-0.0024466
1530.0,7.56291,627.481,2860.25,2858.85,7.56291,-0.00160848
1533.0,7.56244,627.646,2864.44,2863.03,7.56244,-0.00207037
1536.0,7.56046,627.811,2868.63,2867.21,7.56046,-0.00404229
1539.0,7.56166,627.976,2872.82,2871.39,7.56121,-0.00328424
1542.0,7.5617,628.141,2877,2875.57,7.5617,-0.00278622
1545.0,7.56253,628.306,2881.18,2879.74,7.56253,-0.00194823
1548.0,7.56112,628.471,2885.36,2883.92,7.56115,-0.00332026
1551.0,7.55966,628.636,2889.53,2888.09,7.55993,-0.00453231
1554.0,7.56201,628.801,2893.71,2892.26,7.56201,-0.00244441
1557.0,7.56223,628.966,2897.88,2896.42,7.56223,-0.00221653
1560.0,7.56203,629.131,2902.05,2900.59,7.56255,-0.00188868
1563.0,7.56215,629.296,2906.21,2904.75,7.56215,-0.00228083
1566.0,7.56052,629.461,2910.38,2908.91,7.56052,-0.00390302
1569.0,7.55989,629.626,2914.54,2913.06,7.56032,-0.00409523
1572.0,7.56134,629.791,2918.7,2917.22,7.56134,-0.00306748
1575.0,7.56321,629.956,2922.86,2921.37,7.56194,-0.00245976
1578.0,7.56051,630.121,2927.02,2925.52,7.56134,-0.00305206
1581.0,7.55892,630.286,2931.17,2929.67,7.56117,-0.00321439
1584.0,7.56202,630.451,2935.32,2933.82,7.56119,-0.00318676
1587.0,7.56012,630.616,2939.47,2937.96,7.56012,-0.00424915
1590.0,7.55997,630.781,2943.62,2942.11,7.55997,-0.00439158
1593.0,7.56103,630.946,2947.77,2946.25,7.5603,-0.00405405
1596.0,7.56053,631.111,2951.91,2950.38,7.56053,-0.00381655
1599.0,7.56081,631.276,2956.05,2954.52,7.56081,-0.00352909
1602.0,7.55926,631.441,2960.19,2958.65,7.56001,-0.00432165
1605.0,7.56284,631.606,2964.33,2962.79,7.56153,-0.00279426
1608.0,7.55915,631.771,2968.46,2966.92,7.55922,-0.00509689
1611.0,7.55926,631.936,2972.6,2971.04,7.55987,-0.00443957
1614.0,7.5608,632.101,2976.73,2975.17,7.56052,-0.00378229
1617.0,7.56038,632.266,2980.85,2979.29,7.5619,-0.00239503
1620.0,7.56183,632.431,2984.98,2983.41,7.56183,-0.00245781
1623.0,7.55808,632.596,2989.1,2987.53,7.55981,-0.00447061
1626.0,7.56149,632.761,2993.23,2991.65,7.56149,-0.00278345
1629.0,7.56086,632.926,2997.35,2995.76,7.56086,-0.00340632
1632.0,7.55947,633.091,3001.46,2999.87,7.55906,-0.00519923
1635.0,7.5594,633.256,3005.58,3003.98,7.5592,-0.00505218
1638.0,7.55871,633.421,3009.69,3008.09,7.55909,-0.00515518
1641.0,7.55908,633.585,3013.8,3012.2,7.55908,-0.00515822
1644.0,7.56018,633.75,3017.91,3016.3,7.55947,-0.00476131
1647.0,7.56026,633.915,3022.02,3020.4,7.55995,-0.00427444
1650.0,7.55843,634.08,3026.12,3024.5,7.55866,-0.00555761
1653.0,7.55857,634.245,3030.23,3028.6,7.55836,-0.00585083
1656.0,7.55813,634.41,3034.33,3032.69,7.55836,-0.0058441
1659.0,7.5591,634.575,3038.42,3036.79,7.55903,-0.00516742
1662.0,7.55938,634.74,3042.52,3040.88,7.55903,-0.00516079
1665.0,7.56071,634.905,3046.61,3044.97,7.5607,-0.0034842
1668.0,7.5585,635.07,3050.71,3049.05,7.5585,-0.00567765
1671.0,7.55904,635.235,3054.8,3053.14,7.55904,-0.00513114
1674.0,7.5591,635.4,3058.88,3057.22,7.5591,-0.00506468
1677.0,7.55927,635.565,3062.97,3061.3,7.55927,-0.00488826
1680.0,7.56042,635.73,3067.05,3065.38,7.56042,-0.00373188
1683.0,7.55764,635.895,3071.13,3069.45,7.55764,-0.00650554
1686.0,7.55639,636.06,3075.21,3073.53,7.55676,-0.00737926
1689.0,7.55647,636.225,3079.29,3077.6,7.55676,-0.00737304
1692.0,7.55916,636.39,3083.36,3081.67,7.55881,-0.00531689
1695.0,7.55822,636.555,3087.44,3085.74,7.55799,-0.00613078
1698.0,7.55832,636.72,3091.51,3089.8,7.55904,-0.00507473
1701.0,7.55789,636.885,3095.58,3093.87,7.55789,-0.00621874
1704.0,7.55594,637.05,3099.64,3097.93,7.55641,-0.00769279
1707.0,7.5587,637.215,3103.71,3101.99,7.55733,-0.00676691
1710.0,7.55698,637.38,3107.77,3106.04,7.55729,-0.0068011
1713.0,7.55664,637.545,3111.83,3110.1,7.55681,-0.00727533
1716.0,7.55682,637.71,3115.89,3114.15,7.55681,-0.00726964
1719.0,7.55695,637.875,3119.94,3118.2,7.55695,-0.00712401
1722.0,7.55893,638.04,3124,3122.25,7.55825,-0.00581846
1725.0,7.55783,638.205,3128.05,3126.3,7.55808,-0.00598295
1728.0,7.55848,638.37,3132.1,3130.34,7.55809,-0.0059675
1731.0,7.55539,638.535,3136.15,3134.38,7.55693,-0.0071221
1734.0,7.55763,638.7,3140.19,3138.42,7.55723,-0.00681677
1737.0,7.55951,638.865,3144.24,3142.46,7.55904,-0.0050015
1740.0,7.55717,639.03,3148.28,3146.5,7.55718,-0.00685628
1743.0,7.55422,639.195,3152.32,3150.53,7.55479,-0.00924112
1746.0,7.55752,639.36,3156.35,3154.56,7.5574,-0.00662603
1749.0,7.56022,639.525,3160.39,3158.59,7.55885,-0.00517101
1752.0,7.55801,639.69,3164.42,3162.62,7.55869,-0.00532604
1755.0,7.5566,639.855,3168.45,3166.65,7.55744,-0.00657111
1758.0,7.55636,640.02,3172.48,3170.67,7.55636,-0.00764624
1761.0,7.55621,640.185,3176.51,3174.69,7.55597,-0.00803144
1764.0,7.55456,640.35,3180.53,3178.71,7.55579,-0.00820672
1767.0,7.55715,640.515,3184.55,3182.73,7.55612,-0.00787207
1770.0,7.55462,640.68,3188.58,3186.74,7.55462,-0.00936749
1773.0,7.5536,640.845,3192.59,3190.76,7.55438,-0.00960299
1776.0,7.55701,641.01,3196.61,3194.77,7.55615,-0.00782859
1779.0,7.55686,641.175,3200.62,3198.78,7.55655,-0.00742425
1782.0,7.55689,641.34,3204.64,3202.78,7.55689,-0.00707998
1785.0,7.5559,641.505,3208.65,3206.79,7.5559,-0.00806578
1788.0,7.55481,641.67,3212.65,3210.79,7.55518,-0.00878164
1791.0,7.55478,641.835,3216.66,3214.79,7.55519,-0.00876759
1794.0,7.55814,642,3220.66,3218.79,7.55665,-0.00730362
1797.0,7.5574,642.165,3224.67,3222.79,7.55742,-0.00652971
1800.0,7.55498,642.33,3228.67,3226.78,7.55617,-0.00777585
1803.0,7.55752,642.495,3232.66,3230.78,7.55749,-0.00645207
1806.0,7.55785,642.66,3236.66,3234.77,7.55749,-0.00644836
1809.0,7.55183,642.825,3240.65,3238.76,7.55354,-0.0103947
1812.0,7.55551,642.99,3244.65,3242.74,7.55551,-0.00842113
1815.0,7.55693,643.155,3248.64,3246.73,7.55693,-0.00699764
1818.0,7.55479,643.32,3252.62,3250.71,7.55556,-0.00836422
1821.0,7.5565,643.485,3256.61,3254.69,7.55614,-0.00778087
1824.0,7.55506,643.65,3260.59,3258.67,7.55506,-0.00885759
1827.0,7.55734,643.815,3264.57,3262.64,7.556,-0.00791439
1830.0,7.55519,643.98,3268.55,3266.62,7.55538,-0.00853125
1833.0,7.55453,644.145,3272.53,3270.59,7.55538,-0.00852819
1836.0,7.55489,644.31,3276.51,3274.56,7.55554,-0.00836521
1839.0,7.55549,644.475,3280.48,3278.53,7.55536,-0.00854231
1842.0,7.55505,644.64,3284.45,3282.5,7.55497,-0.00892949
1845.0,7.55634,644.805,3288.42,3286.46,7.55617,-0.00772674
1848.0,7.5563,644.97,3292.39,3290.42,7.55583,-0.00806407
1851.0,7.55501,645.135,3296.35,3294.38,7.55472,-0.00917147
1854.0,7.55355,645.3,3300.31,3298.34,7.55393,-0.00995896
1857.0,7.55519,645.465,3304.28,3302.3,7.55389,-0.00999654
1860.0,7.55173,645.63,3308.23,3306.25,7.55287,-0.0110142
1863.0,7.55546,645.795,3312.19,3310.2,7.55486,-0.00902197
1866.0,7.55491,645.96,3316.15,3314.15,7.55491,-0.00896982
1869.0,7.55322,646.125,3320.1,3318.1,7.55417,-0.00970775
1872.0,7.55503,646.29,3324.05,3322.05,7.55503,-0.00884577
1875.0,7.55563,646.455,3328,3325.99,7.55563,-0.00824387
1878.0,7.55381,646.619,3331.95,3329.93,7.55416,-0.00971204
1881.0,7.55571,646.784,3335.89,3333.87,7.55571,-0.00816029
1884.0,7.5555,646.949,3339.83,3337.81,7.55595,-0.00791862
1887.0,7.55516,647.114,3343.78,3341.74,7.55514,-0.00872703
1890.0,7.55547,647.279,3347.71,3345.68,7.55538,-0.00848551
1893.0,7.55546,647.444,3351.65,3349.61,7.55584,-0.00802407
1896.0,7.55635,647.609,3355.59,3353.54,7.55588,-0.0079827
1899.0,7.55575,647.774,3359.52,3357.47,7.55575,-0.00811141
1902.0,7.55743,647.939,3363.45,3361.39,7.55883,-0.00503018
1905.0,7.55895,648.104,3367.38,3365.32,7.55844,-0.005419
1908.0,7.55743,648.269,3371.31,3369.24,7.55703,-0.00682788
1911.0,7.55786,648.434,3375.23,3373.16,7.55786,-0.00599681
1914.0,7.55701,648.599,3379.15,3377.08,7.55701,-0.00684581
1917.0,7.55734,648.764,3383.07,3380.99,7.55721,-0.00664486
1920.0,7.55929,648.929,3386.99,3384.91,7.55929,-0.00456397
1923.0,7.55817,649.094,3390.91,3388.82,7.55837,-0.00548313
1926.0,7.55694,649.259,3394.83,3392.73,7.55697,-0.00688233
1929.0,7.55705,649.424,3398.74,3396.64,7.55744,-0.0064116
1932.0,7.55982,649.589,3402.65,3400.54,7.55975,-0.00410092
1935.0,7.56033,649.754,3406.56,3404.45,7.55931,-0.00454028
1938.0,7.5565,649.919,3410.47,3408.35,7.55869,-0.00515967
1941.0,7.55975,650.084,3414.37,3412.25,7.55869,-0.00515912
1944.0,7.55989,650.249,3418.27,3416.15,7.55934,-0.00450861
1947.0,7.55934,650.414,3422.17,3420.04,7.55934,-0.00450814
1950.0,7.56016,650.579,3426.07,3423.94,7.55933,-0.00451771
1953.0,7.55816,650.744,3429.97,3427.83,7.55933,-0.00451732
1956.0,7.56263,650.909,3433.87,3431.72,7.56065,-0.00319696
1959.0,7.55949,651.074,3437.76,3435.61,7.55949,-0.00435663
1962.0,7.55793,651.239,3441.65,3439.49,7.55793,-0.00591633
1965.0,7.55891,651.404,3445.54,3443.38,7.55931,-0.00453609
1968.0,7.56085,651.569,3449.43,3447.26,7.56085,-0.0029959
1971.0,7.56182,651.734,3453.31,3451.14,7.56182,-0.00202572
1974.0,7.55914,651.899,3457.2,3455.02,7.55948,-0.00436557
1977.0,7.56013,652.064,3461.08,3458.89,7.56013,-0.00371546
1980.0,7.5615,652.229,3464.96,3462.77,7.56176,-0.00208539
1983.0,7.55995,652.394,3468.83,3466.64,7.56006,-0.00378533
1986.0,7.56304,652.559,3472.71,3470.51,7.56281,-0.0010353
1989.0,7.56233,652.724,3476.58,3474.38,7.56233,-0.00151528
1992.0,7.56141,652.889,3480.45,3478.25,7.56165,-0.00219528
1995.0,7.56344,653.054,3484.32,3482.11,7.56336,-0.000485303
1998.0,7.56364,653.219,3488.19,3485.97,7.56336,-0.000485328
2001.0,7.56212,653.384,3492.06,3489.83,7.5628,-0.00104536
2004.0,7.56362,653.549,3495.92,3493.69,7.56362,-0.0002254
2007.0,7.56541,653.714,3499.78,3497.55,7.56541,0.00156456
2010.0,7.56577,653.879,3503.64,3501.4,7.56577,0.00192453
2013.0,7.56526,654.044,3507.5,3505.26,7.56406,0.000214521
2016.0,7.56206,654.209,3511.36,3509.11,7.56212,-0.00172548
2019.0,7.56365,654.374,3515.21,3512.96,7.56365,-0.000195501
2022.0,7.56494,654.539,3519.06,3516.8,7.56489,0.00104448
2025.0,7.56278,654.704,3522.91,3520.65,7.56278,-0.00106553
2028.0,7.5619,654.869,3526.76,3524.49,7.5619,-0.00194555
2031.0,7.56396,655.034,3530.61,3528.33,7.56396,0.000114417
2034.0,7.5642,655.199,3534.45,3532.17,7.56435,0.000504386
2037.0,7.56288,655.364,3538.29,3536.01,7.56435,0.000504358
2040.0,7.56644,655.529,3542.13,3539.85,7.56644,0.00259433
2043.0,7.56413,655.694,3545.97,3543.68,7.56413,0.00028432
2046.0,7.564,655.859,3549.81,3547.51,7.56359,-0.000255679
2047.0,7.56323,655.914,3551.09,3548.79,7.56323,-0.000615678