File: data/processed/processed_data/2024-09-03/2024-09-03_glycinepowder_n_y_y_solid_1000_0_10.csv
Pixels #,Intensity (a.u.),Wavelength (nm),Raman shift (cm-1),Raman shift (cm-1) adjusted,Filtered Intensity (a.u.),Baselined Filtered Intensity (a.u.)
0.0,0.000467289,543.337,392.223,393.994,0.000265197,0.00025784
3.0,0.000618937,543.502,397.81,399.573,0.000618937,0.00061158
6.0,0.00125421,543.667,403.394,405.15,0.00127972,0.00127236
9.0,0.00187914,543.832,408.974,410.723,0.00172756,0.0017202
12.0,0.000644334,543.997,414.551,416.293,0.00130653,0.00129917
15.0,0.00120972,544.162,420.125,421.859,0.0013604,0.00135304
18.0,0.0027852,544.327,425.695,427.422,0.00188591,0.00187855
21.0,0.0,544.492,431.261,432.981,0.000368586,0.000361229
24.0,0.00237587,544.657,436.825,438.537,0.00179263,0.00178527
27.0,0.00215192,544.822,442.385,444.09,0.00179263,0.00178527
30.0,0.00156638,544.987,447.941,449.64,0.00156638,0.00155902
33.0,0.00314758,545.152,453.494,455.186,0.00294915,0.00294179
36.0,0.00147187,545.317,459.044,460.728,0.00147187,0.00146451
39.0,0.000553857,545.482,464.591,466.268,0.000537256,0.000529899
42.0,0.0,545.647,470.134,471.804,0.000516132,0.000508774
45.0,0.000665581,545.812,475.674,477.337,0.000785168,0.00077781
48.0,0.00179707,545.977,481.21,482.866,0.00141063,0.00140327
51.0,0.0,546.142,486.743,488.392,0.000688754,0.000681396
54.0,0.00162699,546.307,492.273,493.915,0.00162699,0.00161963
57.0,0.00396733,546.472,497.8,499.434,0.00396733,0.00395997
60.0,0.00744496,546.637,503.323,504.95,0.00723211,0.00722475
63.0,0.00689128,546.802,508.843,510.463,0.00735604,0.00734868
66.0,0.0100624,546.967,514.359,515.972,0.00946306,0.0094557
69.0,0.0107939,547.132,519.872,521.478,0.0102102,0.0102028
72.0,0.0115536,547.297,525.382,526.981,0.0105087,0.0105013
75.0,0.0105033,547.462,530.888,532.48,0.0110768,0.0110694
78.0,0.0108552,547.627,536.392,537.976,0.0117233,0.0117159
81.0,0.0138897,547.792,541.891,543.469,0.0130432,0.0130358
84.0,0.0134756,547.957,547.388,548.958,0.0137048,0.0136974
87.0,0.0144717,548.122,552.881,554.444,0.0144717,0.0144643
90.0,0.011422,548.287,558.371,559.927,0.011422,0.0114146
93.0,0.00761362,548.452,563.858,565.407,0.00761362,0.00760626
96.0,0.00777826,548.617,569.341,570.883,0.00691103,0.00690367
99.0,0.00393026,548.782,574.821,576.356,0.00393026,0.0039229
102.0,0.00358169,548.947,580.298,581.826,0.00358169,0.00357433
105.0,0.00568434,549.112,585.771,587.292,0.00467611,0.00466875
108.0,0.0,549.277,591.241,592.755,0.000276188,0.000268828
111.0,0.00313127,549.442,596.708,598.215,0.00313127,0.00312391
114.0,0.00376873,549.607,602.172,603.671,0.00376873,0.00376137
117.0,0.0012383,549.772,607.632,609.125,0.00252883,0.00252147
120.0,0.00560983,549.937,613.089,614.575,0.00429604,0.00428868
123.0,0.000751218,550.102,618.543,620.021,0.00164014,0.00163278
126.0,0.00316476,550.267,623.993,625.465,0.00198535,0.00197799
129.0,0.00198608,550.432,629.44,630.905,0.00198535,0.00197799
132.0,0.0,550.597,634.884,636.342,2.67033e-05,1.93422e-05
135.0,0.000115969,550.762,640.325,641.776,0.000115969,0.000108608
138.0,0.00223259,550.927,645.762,647.206,0.00211815,0.00211079
141.0,0.00180136,551.092,651.197,652.633,0.00211815,0.00211079
144.0,0.00275571,551.257,656.627,658.057,0.00218049,0.00217313
147.0,0.00056289,551.422,662.055,663.478,0.00170105,0.00169369
150.0,0.00357177,551.587,667.48,668.895,0.00170105,0.00169369
153.0,0.0016855,551.752,672.901,674.309,0.00178775,0.00178039
156.0,0.000467541,551.917,678.319,679.72,0.00178775,0.00178039
159.0,0.00216242,552.082,683.733,685.128,0.00216242,0.00215506
162.0,0.00431998,552.247,689.145,690.533,0.00431998,0.00431262
165.0,0.0033607,552.412,694.553,695.934,0.0033607,0.00335334
168.0,0.00291875,552.577,699.958,701.332,0.00291875,0.00291139
171.0,0.00532368,552.742,705.36,706.727,0.00471521,0.00470785
174.0,0.00701566,552.907,710.758,712.118,0.00656978,0.00656242
177.0,0.00499579,553.072,716.154,717.507,0.00523163,0.00522427
180.0,0.00602414,553.237,721.546,722.892,0.00523163,0.00522427
183.0,0.00544752,553.402,726.935,728.274,0.00635207,0.00634471
186.0,0.00739321,553.567,732.32,733.652,0.00809758,0.00809022
189.0,0.0113627,553.732,737.703,739.028,0.0113309,0.0113235
192.0,0.0131964,553.897,743.082,744.4,0.0131964,0.013189
195.0,0.0127488,554.062,748.458,749.769,0.0131422,0.0131348
198.0,0.0138386,554.227,753.831,755.135,0.0138386,0.0138312
201.0,0.0149956,554.392,759.201,760.498,0.0149956,0.0149882
204.0,0.0174134,554.557,764.567,765.858,0.0174134,0.017406
207.0,0.0202286,554.722,769.93,771.214,0.018922,0.0189146
210.0,0.0212991,554.887,775.29,776.567,0.0212991,0.0212917
213.0,0.0278469,555.052,780.647,781.917,0.0278418,0.0278344
216.0,0.0298853,555.217,786.001,787.264,0.0298853,0.0298779
219.0,0.0318637,555.382,791.352,792.608,0.0321486,0.0321412
222.0,0.0355667,555.546,796.699,797.948,0.0355667,0.0355593
225.0,0.0398159,555.711,802.043,803.285,0.0399139,0.0399065
228.0,0.0447491,555.876,807.384,808.62,0.0447491,0.0447417
231.0,0.0482949,556.041,812.722,813.951,0.0482949,0.0482875
234.0,0.0564457,556.206,818.057,819.278,0.0549239,0.0549165
237.0,0.0593243,556.371,823.388,824.603,0.0593243,0.0593169
240.0,0.0604534,556.536,828.716,829.924,0.0618288,0.0618214
243.0,0.0636028,556.701,834.042,835.243,0.0636028,0.0635954
246.0,0.0646041,556.866,839.364,840.558,0.0651283,0.0651209
249.0,0.0705307,557.031,844.682,845.87,0.0693423,0.0693349
252.0,0.0652096,557.196,849.998,851.179,0.0656945,0.0656871
255.0,0.0649243,557.361,855.311,856.485,0.0649243,0.0649169
258.0,0.057577,557.526,860.62,861.787,0.0584031,0.0583957
261.0,0.0542767,557.691,865.927,867.087,0.0547628,0.0547554
264.0,0.0545528,557.856,871.23,872.383,0.0532166,0.0532092
267.0,0.0504297,558.021,876.53,877.676,0.0520102,0.0520028
270.0,0.0655213,558.186,881.827,882.966,0.0655213,0.0655139
273.0,0.0839433,558.351,887.12,888.253,0.0790587,0.0790513
276.0,0.0705864,558.516,892.411,893.537,0.0705864,0.070579
279.0,0.0559157,558.681,897.698,898.818,0.0559157,0.0559083
282.0,0.0273843,558.846,902.983,904.095,0.0273843,0.0273769
285.0,0.0126505,559.011,908.264,909.37,0.0126505,0.0126431
288.0,0.00542498,559.176,913.542,914.641,0.00543406,0.00542671
291.0,0.00738792,559.341,918.817,919.909,0.00738792,0.00738057
294.0,0.00738664,559.506,924.089,925.174,0.0075639,0.00755655
297.0,0.0059644,559.671,929.358,930.436,0.00475797,0.00475062
300.0,0.00768768,559.836,934.624,935.695,0.00612561,0.00611826
303.0,0.00222204,560.001,939.886,940.951,0.00260021,0.00259286
306.0,0.00597766,560.166,945.146,946.204,0.00388704,0.00387969
309.0,0.00404625,560.331,950.402,951.454,0.00404625,0.0040389
312.0,0.00547546,560.496,955.656,956.7,0.00364623,0.00363888
315.0,0.00175337,560.661,960.906,961.944,0.00197453,0.00196718
318.0,0.00241967,560.826,966.153,967.184,0.00159291,0.00158556
321.0,0.00338293,560.991,971.397,972.421,0.00338293,0.00337558
324.0,0.00398879,561.156,976.638,977.655,0.00444473,0.00443738
327.0,0.00646268,561.321,981.876,982.887,0.00646268,0.00645533
330.0,0.00739803,561.486,987.111,988.115,0.00682843,0.00682108
333.0,0.00385394,561.651,992.342,993.34,0.00395941,0.00395206
336.0,0.00461672,561.816,997.571,998.562,0.00461672,0.00460937
339.0,0.00294525,561.981,1002.8,1003.78,0.00294525,0.0029379
342.0,0.00474174,562.146,1008.02,1009,0.00474174,0.00473439
345.0,0.00661807,562.311,1013.24,1014.21,0.0066954,0.00668805
348.0,0.00764277,562.476,1018.45,1019.42,0.00764277,0.00763542
351.0,0.0124588,562.641,1023.67,1024.63,0.0124588,0.0124515
354.0,0.0179711,562.806,1028.88,1029.83,0.0179711,0.0179638
357.0,0.0194069,562.971,1034.09,1035.03,0.0180689,0.0180616
360.0,0.014243,563.136,1039.29,1040.23,0.014243,0.0142357
363.0,0.00982241,563.301,1044.49,1045.42,0.00982241,0.00981506
366.0,0.00651519,563.466,1049.69,1050.61,0.00726433,0.00725698
369.0,0.00655177,563.631,1054.88,1055.8,0.00659359,0.00658624
372.0,0.00706692,563.796,1060.08,1060.99,0.00585043,0.00584308
375.0,0.00147081,563.961,1065.27,1066.17,0.00283034,0.00282299
378.0,0.00240453,564.126,1070.45,1071.35,0.00326086,0.00325351
381.0,0.00650257,564.291,1075.63,1076.52,0.00471847,0.00471112
384.0,0.00381214,564.456,1080.81,1081.7,0.00450514,0.00449779
387.0,0.00543893,564.621,1085.99,1086.87,0.00513538,0.00512803
390.0,0.00670438,564.786,1091.16,1092.03,0.00670438,0.00669703
393.0,0.00492634,564.951,1096.34,1097.2,0.00552126,0.00551391
396.0,0.00303547,565.116,1101.5,1102.36,0.0044233,0.00441595
399.0,0.00963885,565.281,1106.67,1107.52,0.0092633,0.00925595
402.0,0.00602265,565.446,1111.83,1112.67,0.00602265,0.0060153
405.0,0.00401845,565.611,1116.99,1117.82,0.00296106,0.00295371
408.0,0.00087892,565.776,1122.14,1122.97,0.00124039,0.00123304
411.0,0.00501021,565.941,1127.3,1128.12,0.00501021,0.00500286
414.0,0.00953131,566.106,1132.45,1133.26,0.00797081,0.00796346
417.0,0.00263863,566.271,1137.59,1138.4,0.00471888,0.00471153
420.0,0.00484063,566.436,1142.74,1143.54,0.00510655,0.0050992
423.0,0.00420431,566.601,1147.88,1148.67,0.00420431,0.00419696
426.0,1.08802e-05,566.766,1153.02,1153.81,0.00173004,0.00172269
429.0,0.00313196,566.931,1158.15,1158.93,0.00313196,0.00312462
432.0,0.00742173,567.096,1163.28,1164.06,0.00742173,0.00741439
435.0,0.00184119,567.261,1168.41,1169.18,0.00236459,0.00235725
438.0,0.0,567.426,1173.54,1174.3,0.00163737,0.00163003
441.0,0.00505799,567.591,1178.66,1179.42,0.00505799,0.00505065
444.0,0.00468823,567.756,1183.78,1184.53,0.00562083,0.00561349
447.0,0.00786686,567.921,1188.9,1189.64,0.00730771,0.00730037
450.0,0.00390935,568.086,1194.01,1194.75,0.00390935,0.00390201
453.0,0.0060497,568.251,1199.12,1199.85,0.0060497,0.00604236
456.0,0.00566246,568.416,1204.23,1204.95,0.00697963,0.00697229
459.0,0.00828084,568.58,1209.33,1210.05,0.00698413,0.00697679
462.0,0.00550717,568.745,1214.44,1215.15,0.00581814,0.0058108
465.0,0.00564365,568.91,1219.53,1220.24,0.00564365,0.00563631
468.0,0.00326293,569.075,1224.63,1225.33,0.00326293,0.00325559
471.0,0.000874925,569.24,1229.72,1230.42,0.00324544,0.0032381
474.0,0.00516537,569.405,1234.81,1235.5,0.00509402,0.00508668
477.0,0.00728374,569.57,1239.9,1240.58,0.00485296,0.00484562
480.0,0.0029701,569.735,1244.99,1245.66,0.0028971,0.00288976
483.0,0.00372012,569.9,1250.07,1250.73,0.0028971,0.00288976
486.0,0.000978759,570.065,1255.14,1255.8,0.000978759,0.000971416
489.0,0.00168776,570.23,1260.22,1260.87,0.00189513,0.00188779
492.0,0.00255113,570.395,1265.29,1265.94,0.00255113,0.00254379
495.0,0.00230234,570.56,1270.36,1271,0.00258747,0.00258013
498.0,0.00654194,570.725,1275.43,1276.06,0.00430457,0.00429723
501.0,0.00108024,570.89,1280.49,1281.12,0.000989929,0.000982586
504.0,0.00204204,571.055,1285.55,1286.17,0.00140845,0.00140111
507.0,0.00454861,571.22,1290.61,1291.22,0.00454861,0.00454127
510.0,0.0,571.385,1295.67,1296.27,0.00461921,0.00461187
513.0,0.00656033,571.55,1300.72,1301.32,0.00573999,0.00573265
516.0,0.00613125,571.715,1305.77,1306.36,0.00687464,0.0068673
519.0,0.0261299,571.88,1310.81,1311.4,0.0261299,0.0261226
522.0,0.0467232,572.045,1315.86,1316.44,0.0467232,0.0467159
525.0,0.0619511,572.21,1320.9,1321.47,0.0590827,0.0590754
528.0,0.0507389,572.375,1325.94,1326.5,0.0507389,0.0507316
531.0,0.0267366,572.54,1330.97,1331.53,0.0267366,0.0267293
534.0,0.00518467,572.705,1336,1336.56,0.00518467,0.00517733
537.0,0.0,572.87,1341.03,1341.58,0.0,-7.34216e-06
540.0,0.00121462,573.035,1346.06,1346.6,0.00121462,0.00120728
543.0,0.00337632,573.2,1351.08,1351.61,0.00337632,0.00336898
546.0,0.00216735,573.365,1356.1,1356.63,0.0012091,0.00120176
549.0,0.000708019,573.53,1361.12,1361.64,0.000708019,0.000700677
552.0,0.00358203,573.695,1366.13,1366.65,0.00275123,0.00274389
555.0,0.000613413,573.86,1371.14,1371.65,0.000613413,0.000606071
558.0,0.00479267,574.025,1376.15,1376.65,0.00375973,0.00375239
561.0,0.00472285,574.19,1381.16,1381.65,0.00472285,0.00471551
564.0,0.00583674,574.355,1386.16,1386.65,0.00583674,0.0058294
567.0,0.00829362,574.52,1391.16,1391.64,0.00753268,0.00752534
570.0,0.0104863,574.685,1396.16,1396.63,0.0111415,0.0111342
573.0,0.0177781,574.85,1401.15,1401.62,0.0177781,0.0177708
576.0,0.0246115,575.015,1406.14,1406.61,0.0246115,0.0246042
579.0,0.0235891,575.18,1411.13,1411.59,0.0235891,0.0235818
582.0,0.0127439,575.345,1416.12,1416.57,0.0127958,0.0127885
585.0,0.00321663,575.51,1421.1,1421.54,0.00321663,0.00320929
588.0,0.000435645,575.675,1426.08,1426.52,0.000435645,0.000428305
591.0,0.00740874,575.84,1431.06,1431.49,0.00345207,0.00344473
594.0,0.00387993,576.005,1436.03,1436.46,0.00396105,0.00395371
597.0,0.00691788,576.17,1441,1441.42,0.00549574,0.0054884
600.0,0.00661351,576.335,1445.97,1446.38,0.00661351,0.00660617
603.0,0.00691601,576.5,1450.94,1451.34,0.00691601,0.00690867
606.0,0.00500275,576.665,1455.9,1456.3,0.00500275,0.00499541
609.0,0.0058342,576.83,1460.86,1461.25,0.00455332,0.00454598
612.0,0.0,576.995,1465.82,1466.2,0.00227283,0.00226549
615.0,0.00226692,577.16,1470.77,1471.15,0.00226692,0.00225958
618.0,0.00801122,577.325,1475.72,1476.1,0.00801122,0.00800388
621.0,0.00268804,577.49,1480.67,1481.04,0.00268804,0.0026807
624.0,0.000421882,577.655,1485.62,1485.98,0.00112488,0.00111754
627.0,0.00406004,577.82,1490.56,1490.91,0.00329193,0.00328459
630.0,0.00722029,577.985,1495.5,1495.85,0.00722029,0.00721295
633.0,0.00834876,578.15,1500.44,1500.78,0.00834876,0.00834142
636.0,0.00370675,578.315,1505.37,1505.71,0.00441508,0.00440774
639.0,0.0117069,578.48,1510.3,1510.63,0.010697,0.0106897
642.0,0.00466131,578.645,1515.23,1515.55,0.00656769,0.00656035
645.0,0.00493593,578.81,1520.16,1520.47,0.00493593,0.00492859
648.0,0.0012047,578.975,1525.08,1525.39,0.00185251,0.00184517
651.0,0.000182345,579.14,1530,1530.31,0.00201107,0.00200373
654.0,0.0051561,579.305,1534.92,1535.22,0.00437992,0.00437258
657.0,0.000891742,579.47,1539.83,1540.13,0.00150976,0.00150242
660.0,0.00548875,579.635,1544.75,1545.03,0.00297252,0.00296518
663.0,0.00365388,579.8,1549.65,1549.93,0.00427972,0.00427238
666.0,0.00346706,579.965,1554.56,1554.83,0.00401174,0.0040044
669.0,0.00421571,580.13,1559.47,1559.73,0.00421571,0.00420837
672.0,0.0111149,580.295,1564.37,1564.63,0.00955341,0.00954607
675.0,0.00700673,580.46,1569.26,1569.52,0.00775583,0.00774849
678.0,0.00893286,580.625,1574.16,1574.41,0.00775583,0.00774849
681.0,0.00273289,580.79,1579.05,1579.29,0.00273289,0.00272555
684.0,0.000328963,580.955,1583.94,1584.18,0.000328963,0.000321627
687.0,0.00226634,581.12,1588.83,1589.06,0.00226634,0.002259
690.0,0.0,581.285,1593.71,1593.94,1.34048e-05,6.06857e-06
693.0,0.000107385,581.45,1598.59,1598.81,0.000337224,0.000329888
696.0,0.00176817,581.614,1603.47,1603.68,0.00176817,0.00176083
699.0,0.000492055,581.779,1608.35,1608.55,0.00232256,0.00231522
702.0,0.00240052,581.944,1613.22,1613.42,0.00136053,0.00135319
705.0,0.00227029,582.109,1618.09,1618.28,0.00227029,0.00226296
708.0,0.00512558,582.274,1622.96,1623.15,0.00573107,0.00572374
711.0,0.00715697,582.439,1627.83,1628,0.00706969,0.00706236
714.0,0.0,582.604,1632.69,1632.86,0.00122867,0.00122134
717.0,0.000893354,582.769,1637.55,1637.71,0.000893354,0.00088602
720.0,0.0014298,582.934,1642.4,1642.56,8.41154e-05,7.6782e-05
723.0,0.000406081,583.099,1647.26,1647.41,0.00029984,0.000292507
726.0,0.00227824,583.264,1652.11,1652.26,0.00227824,0.00227091
729.0,0.00194581,583.429,1656.96,1657.1,0.0041765,0.00416917
732.0,0.00321198,583.594,1661.8,1661.94,0.00415069,0.00414336
735.0,0.00856226,583.759,1666.65,1666.77,0.00856226,0.00855493
738.0,0.00481512,583.924,1671.49,1671.61,0.00481512,0.00480779
741.0,0.00450932,584.089,1676.32,1676.44,0.00330952,0.00330219
744.0,0.0022314,584.254,1681.16,1681.27,0.00279068,0.00278335
747.0,0.00159604,584.419,1685.99,1686.09,0.00173421,0.00172688
750.0,0.000631724,584.584,1690.82,1690.92,0.00173421,0.00172688
753.0,0.00484901,584.749,1695.65,1695.74,0.00484901,0.00484168
756.0,0.00601824,584.914,1700.47,1700.55,0.00601824,0.00601091
759.0,0.00316703,585.079,1705.29,1705.37,0.00316703,0.0031597
762.0,0.000120546,585.244,1710.11,1710.18,0.00192731,0.00191998
765.0,0.00235922,585.409,1714.92,1714.99,0.00235922,0.00235189
768.0,0.00191672,585.574,1719.74,1719.8,0.0035225,0.00351517
771.0,0.00456357,585.739,1724.55,1724.6,0.00456357,0.00455625
774.0,0.00600863,585.904,1729.35,1729.4,0.00561509,0.00560777
777.0,0.00596638,586.069,1734.16,1734.2,0.00561509,0.00560777
780.0,0.0,586.234,1738.96,1739,0.00249057,0.00248325
783.0,0.00670932,586.399,1743.76,1743.79,0.00580461,0.00579729
786.0,0.00440085,586.564,1748.56,1748.58,0.00440085,0.00439353
789.0,0.00416122,586.729,1753.35,1753.37,0.00467221,0.00466489
792.0,0.000983428,586.894,1758.14,1758.15,0.00215044,0.00214312
795.0,0.00679224,587.059,1762.93,1762.94,0.00556513,0.00555781
798.0,0.00172101,587.224,1767.72,1767.72,0.00329283,0.00328551
801.0,0.000347666,587.389,1772.5,1772.49,0.00245358,0.00244626
804.0,0.00307673,587.554,1777.28,1777.27,0.00245358,0.00244626
807.0,0.00131704,587.719,1782.06,1782.04,0.00143453,0.00142721
810.0,0.00329055,587.884,1786.83,1786.81,0.00223249,0.00222517
813.0,0.00436039,588.049,1791.61,1791.57,0.00436039,0.00435308
816.0,0.0,588.214,1796.38,1796.34,0.00054414,0.000536827
819.0,0.000676038,588.379,1801.14,1801.1,0.000676038,0.000668726
822.0,0.00124944,588.544,1805.91,1805.86,0.00124944,0.00124213
825.0,0.00309257,588.709,1810.67,1810.61,0.00244109,0.00243378
828.0,0.00524304,588.874,1815.43,1815.37,0.00468659,0.00467928
831.0,0.00289783,589.039,1820.19,1820.12,0.00301161,0.0030043
834.0,0.00326926,589.204,1824.94,1824.86,0.00255785,0.00255054
837.0,0.00341939,589.369,1829.69,1829.61,0.00245154,0.00244423
840.0,0.00380346,589.534,1834.44,1834.35,0.00380346,0.00379615
843.0,0.0058012,589.699,1839.18,1839.09,0.00508266,0.00507535
846.0,0.00145864,589.864,1843.93,1843.83,0.00195038,0.00194308
849.0,0.000336461,590.029,1848.67,1848.56,0.00210926,0.00210196
852.0,0.00474665,590.194,1853.41,1853.29,0.00464926,0.00464196
855.0,0.00194291,590.359,1858.14,1858.02,0.00194291,0.00193561
858.0,0.00263278,590.524,1862.87,1862.75,0.00263278,0.00262548
861.0,0.00393325,590.689,1867.6,1867.47,0.00336024,0.00335294
864.0,0.00493987,590.854,1872.33,1872.2,0.00582864,0.00582134
867.0,0.0100652,591.019,1877.06,1876.91,0.00727116,0.00726386
870.0,0.00280506,591.184,1881.78,1881.63,0.00505014,0.00504284
873.0,0.00490407,591.349,1886.5,1886.34,0.00160069,0.00159339
876.0,0.0,591.514,1891.21,1891.05,0.000655699,0.000648403
879.0,0.00130988,591.679,1895.93,1895.76,0.0014477,0.00144041
882.0,0.00710312,591.844,1900.64,1900.47,0.00458789,0.0045806
885.0,0.00271703,592.009,1905.35,1905.17,0.00337846,0.00337117
888.0,0.00207462,592.174,1910.05,1909.87,0.00207462,0.00206733
891.0,0.00318199,592.339,1914.76,1914.57,0.00318199,0.0031747
894.0,0.00394964,592.504,1919.46,1919.26,0.00365136,0.00364407
897.0,0.00165153,592.669,1924.16,1923.96,0.00165153,0.00164424
900.0,0.0,592.834,1928.85,1928.64,0.000500496,0.000493207
903.0,0.00396125,592.999,1933.55,1933.33,0.00396125,0.00395396
906.0,0.00603014,593.164,1938.24,1938.02,0.00603014,0.00602285
909.0,0.00444857,593.329,1942.93,1942.7,0.00444857,0.00444128
912.0,0.00268069,593.494,1947.61,1947.38,0.00293569,0.0029284
915.0,0.00504934,593.659,1952.29,1952.05,0.00379136,0.00378407
918.0,0.0,593.824,1956.97,1956.73,0.0,-7.28466e-06
921.0,0.00388898,593.989,1961.65,1961.4,0.00388898,0.0038817
924.0,0.00463443,594.154,1966.33,1966.07,0.00463443,0.00462715
927.0,0.00498236,594.319,1971,1970.73,0.00395188,0.0039446
930.0,0.000866658,594.484,1975.67,1975.4,0.00141761,0.00141033
933.0,0.0054314,594.648,1980.33,1980.06,0.00141761,0.00141033
936.0,0.0,594.813,1985,1984.72,0.00377452,0.00376724
939.0,0.00856975,594.978,1989.66,1989.37,0.00500144,0.00499416
942.0,0.00146883,595.143,1994.32,1994.03,0.00146883,0.00146155
945.0,0.0,595.308,1998.98,1998.68,0.0,-7.27717e-06
948.0,0.000847748,595.473,2003.63,2003.33,0.00147799,0.00147071
951.0,0.00336414,595.638,2008.28,2007.97,0.00427929,0.00427201
954.0,0.00581831,595.803,2012.93,2012.62,0.00581831,0.00581104
957.0,0.0,595.968,2017.58,2017.26,0.00029469,0.000287416
960.0,0.00232384,596.133,2022.22,2021.89,0.000553902,0.000546629
963.0,0.00503979,596.298,2026.86,2026.53,0.00118102,0.00117375
966.0,0.0,596.463,2031.5,2031.16,0.00118102,0.00117375
969.0,0.0045009,596.628,2036.14,2035.79,0.0045009,0.00449363
972.0,0.00822353,596.793,2040.77,2040.42,0.00533439,0.00532712
975.0,0.000638548,596.958,2045.4,2045.05,0.00166071,0.00165344
978.0,0.00302782,597.123,2050.03,2049.67,0.00304087,0.0030336
981.0,0.00341389,597.288,2054.66,2054.29,0.00380266,0.00379539
984.0,0.00134253,597.453,2059.28,2058.91,0.00134253,0.00133526
987.0,0.00232956,597.618,2063.9,2063.52,0.00149146,0.00148419
990.0,0.0,597.783,2068.52,2068.13,0.0,-7.26479e-06
993.0,0.00184024,597.948,2073.14,2072.74,0.00184024,0.00183298
996.0,0.00622622,598.113,2077.75,2077.35,0.00498565,0.00497839
999.0,0.00596714,598.278,2082.36,2081.95,0.00498565,0.00497839
1002.0,0.00537421,598.443,2086.97,2086.56,0.00544982,0.00544256
1005.0,0.00551505,598.608,2091.57,2091.16,0.00544982,0.00544256
1008.0,0.00364769,598.773,2096.18,2095.75,0.00295771,0.00295045
1011.0,0.0,598.938,2100.78,2100.35,9.68948e-05,8.9635e-05
1014.0,0.00103161,599.103,2105.38,2104.94,0.0015938,0.00158654
1017.0,0.00305697,599.268,2109.97,2109.53,0.00305697,0.00304971
1020.0,0.0051864,599.433,2114.56,2114.12,0.00377464,0.00376738
1023.0,0.00325312,599.598,2119.15,2118.7,0.00377464,0.00376738
1026.0,0.000207039,599.763,2123.74,2123.28,0.00153614,0.00152889
1029.0,0.000142316,599.928,2128.33,2127.86,0.000142316,0.000135062
1032.0,0.00419312,600.093,2132.91,2132.44,0.00120241,0.00119516
1035.0,0.0,600.258,2137.49,2137.01,0.000984398,0.000977147
1038.0,0.0,600.423,2142.07,2141.59,0.00105516,0.00104791
1041.0,0.00614694,600.588,2146.64,2146.15,0.00342928,0.00342203
1044.0,0.0,600.753,2151.22,2150.72,0.000983035,0.000975788
1047.0,0.00255164,600.918,2155.79,2155.29,0.00228177,0.00227452
1050.0,0.00196238,601.083,2160.35,2159.85,0.00229074,0.00228349
1053.0,0.00215857,601.248,2164.92,2164.41,0.00215857,0.00215133
1056.0,0.0,601.413,2169.48,2168.96,0.00128269,0.00127545
1059.0,0.00371692,601.578,2174.04,2173.52,0.00128269,0.00127545
1062.0,0.000141146,601.743,2178.6,2178.07,0.00111168,0.00110444
1065.0,0.000557884,601.908,2183.16,2182.62,0.000584421,0.000577182
1068.0,0.0,602.073,2187.71,2187.17,0.0,-7.2383e-06
1071.0,0.00481632,602.238,2192.26,2191.71,0.00481632,0.00480908
1074.0,0.00584533,602.403,2196.81,2196.25,0.00584533,0.00583809
1077.0,0.00162306,602.568,2201.35,2200.79,0.00162306,0.00161582
1080.0,0.0,602.733,2205.89,2205.33,0.000864979,0.000857745
1083.0,0.00480293,602.898,2210.43,2209.86,0.00298641,0.00297918
1086.0,0.0046146,603.063,2214.97,2214.4,0.0046146,0.00460737
1089.0,0.00495353,603.228,2219.51,2218.92,0.00495353,0.0049463
1092.0,0.000377638,603.393,2224.04,2223.45,0.000560908,0.000553678
1095.0,0.00119825,603.558,2228.57,2227.98,0.00133272,0.00132549
1098.0,0.00399853,603.723,2233.1,2232.5,0.00304068,0.00303345
1101.0,0.00201992,603.888,2237.62,2237.02,0.00201992,0.00201269
1104.0,0.00242425,604.053,2242.15,2241.54,0.00242425,0.00241702
1107.0,0.0,604.218,2246.67,2246.05,0.00016022,0.000152995
1110.0,0.000777256,604.383,2251.19,2250.56,0.000282361,0.000275137
1113.0,0.0104534,604.548,2255.7,2255.07,0.0044206,0.00441338
1116.0,0.000600074,604.713,2260.21,2259.58,0.00341803,0.00341081
1119.0,0.00280568,604.878,2264.72,2264.08,0.00365035,0.00364313
1122.0,0.00408473,605.043,2269.23,2268.59,0.00366033,0.00365311
1125.0,0.0,605.208,2273.74,2273.09,0.0,-7.21826e-06
1128.0,0.0,605.373,2278.24,2277.58,0.0,-7.21714e-06
1131.0,0.00181779,605.538,2282.74,2282.08,0.00181779,0.00181057
1134.0,0.00185809,605.703,2287.24,2286.57,0.00293118,0.00292396
1137.0,0.00119495,605.868,2291.74,2291.06,0.00233996,0.00233275
1140.0,0.000693685,606.033,2296.23,2295.55,0.000693685,0.000686472
1143.0,0.00123509,606.198,2300.72,2300.03,0.000503037,0.000495825
1146.0,0.00244521,606.363,2305.21,2304.52,0.000503037,0.000495826
1149.0,0.00268961,606.528,2309.7,2309,0.00238959,0.00238238
1152.0,0.0,606.693,2314.18,2313.47,0.00238959,0.00238238
1155.0,0.00492423,606.858,2318.66,2317.95,0.00292498,0.00291777
1158.0,0.00106758,607.023,2323.14,2322.42,0.000607749,0.000600542
1161.0,0.000132904,607.188,2327.62,2326.89,0.000607749,0.000600543
1164.0,0.0,607.353,2332.09,2331.36,0.000795377,0.000788172
1167.0,0.00214954,607.518,2336.56,2335.83,0.00156176,0.00155456
1170.0,0.00516502,607.682,2341.03,2340.29,0.00477951,0.00477231
1173.0,0.00375822,607.847,2345.5,2344.75,0.00375822,0.00375102
1176.0,0.000405473,608.012,2349.96,2349.21,0.00140786,0.00140066
1179.0,0.00239683,608.177,2354.42,2353.67,0.00239683,0.00238963
1182.0,0.0041537,608.342,2358.88,2358.12,0.00363869,0.00363149
1185.0,0.000932563,608.507,2363.34,2362.57,0.00194654,0.00193934
1188.0,0.0,608.672,2367.79,2367.02,0.00172045,0.00171325
1191.0,0.00235938,608.837,2372.25,2371.47,0.00172045,0.00171325
1194.0,0.0011907,609.002,2376.7,2375.91,0.00176528,0.00175808
1197.0,0.001748,609.167,2381.14,2380.35,0.00176528,0.00175808
1200.0,0.00218839,609.332,2385.59,2384.79,0.00111579,0.0011086
1203.0,0.0,609.497,2390.03,2389.23,0.0,-7.19367e-06
1206.0,0.00197427,609.662,2394.47,2393.66,0.00197427,0.00196708
1209.0,0.00425654,609.827,2398.91,2398.09,0.00367282,0.00366563
1212.0,0.0,609.992,2403.34,2402.52,0.000215915,0.000208724
1215.0,0.0047203,610.157,2407.78,2406.95,0.00218221,0.00217502
1218.0,0.0,610.322,2412.21,2411.38,0.00200778,0.00200059
1221.0,0.00186506,610.487,2416.63,2415.8,0.00186506,0.00185787
1224.0,0.0,610.652,2421.06,2420.22,0.000393227,0.000386039
1227.0,0.0,610.817,2425.48,2424.64,0.000424201,0.000417014
1230.0,0.00355135,610.982,2429.9,2429.05,0.00355135,0.00354416
1233.0,0.00607953,611.147,2434.32,2433.46,0.00456863,0.00456144
1236.0,0.00296862,611.312,2438.74,2437.87,0.0025215,0.00251432
1239.0,0.0,611.477,2443.15,2442.28,0.000216665,0.000209481
1242.0,0.0,611.642,2447.56,2446.69,0.000330962,0.000323779
1245.0,0.0,611.807,2451.97,2451.09,0.000330962,0.00032378
1248.0,0.00786763,611.972,2456.38,2455.49,0.00399665,0.00398947
1251.0,0.00153373,612.137,2460.78,2459.89,0.00145312,0.00144594
1254.0,0.000815622,612.302,2465.19,2464.29,0.00145312,0.00144594
1257.0,0.00146081,612.467,2469.59,2468.68,0.00192719,0.00192001
1260.0,0.00206342,612.632,2473.98,2473.07,0.00175887,0.00175169
1263.0,0.0,612.797,2478.38,2477.46,0.0,-7.17697e-06
1266.0,0.0030223,612.962,2482.77,2481.85,0.0019744,0.00196722
1269.0,0.00142387,613.127,2487.16,2486.23,0.00142387,0.00141669
1272.0,0.0,613.292,2491.55,2490.61,0.00116817,0.001161
1275.0,5.98023e-05,613.457,2495.93,2494.99,0.00170921,0.00170204
1278.0,0.00106114,613.622,2500.32,2499.37,0.00105823,0.00105106
1281.0,0.0,613.787,2504.7,2503.75,0.0,-7.17112e-06
1284.0,0.0030567,613.952,2509.07,2508.12,0.000882687,0.000875517
1287.0,0.0,614.117,2513.45,2512.49,0.000882687,0.000875518
1290.0,0.000864247,614.282,2517.82,2516.86,0.00149429,0.00148712
1293.0,0.00384849,614.447,2522.19,2521.22,0.00384849,0.00384132
1296.0,0.00681272,614.612,2526.56,2525.59,0.00440195,0.00439478
1299.0,0.00139739,614.777,2530.93,2529.95,0.00139739,0.00139023
1302.0,0.0,614.942,2535.29,2534.3,0.0,-7.16333e-06
1305.0,0.00435946,615.107,2539.66,2538.66,0.00208718,0.00208002
1308.0,0.00157051,615.272,2544.02,2543.01,0.0039046,0.00389744
1311.0,0.00134531,615.437,2548.37,2547.37,0.00163914,0.00163198
1314.0,0.000213626,615.602,2552.73,2551.72,0.000213626,0.000206467
1317.0,0.00080334,615.767,2557.08,2556.06,0.00123663,0.00122947
1320.0,0.000860614,615.932,2561.43,2560.41,0.00123663,0.00122947
1323.0,0.00263269,616.097,2565.78,2564.75,0.00242034,0.00241318
1326.0,0.00224944,616.262,2570.12,2569.09,0.00170157,0.00169441
1329.0,0.000297289,616.427,2574.47,2573.43,0.000297289,0.000290135
1332.0,0.00230878,616.592,2578.81,2577.76,0.0,-7.15322e-06
1335.0,0.0,616.757,2583.15,2582.09,0.000640116,0.000632964
1338.0,0.00588559,616.922,2587.48,2586.42,0.00345906,0.00345191
1341.0,0.00387496,617.087,2591.82,2590.75,0.00345906,0.00345191
1344.0,0.00536704,617.252,2596.15,2595.08,0.00297268,0.00296553
1347.0,0.0,617.417,2600.48,2599.4,0.000924697,0.000917549
1350.0,0.00391706,617.582,2604.8,2603.72,0.00251543,0.00250828
1353.0,0.00150746,617.747,2609.13,2608.04,0.00320601,0.00319886
1356.0,0.00454846,617.912,2613.45,2612.36,0.00454846,0.00454131
1359.0,0.00252716,618.077,2617.77,2616.67,0.00156472,0.00155758
1362.0,0.0,618.242,2622.09,2620.99,0.0,-7.14374e-06
1365.0,0.000650034,618.407,2626.4,2625.3,7.88131e-06,7.38453e-07
1368.0,0.00076596,618.572,2630.72,2629.6,0.00278393,0.00277679
1371.0,0.0017586,618.737,2635.03,2633.91,0.00220053,0.00219339
1374.0,0.0,618.902,2639.34,2638.21,4.50141e-05,3.78738e-05
1377.0,0.00286386,619.067,2643.64,2642.51,0.000725566,0.000718427
1380.0,0.00239881,619.232,2647.95,2646.81,0.00239881,0.00239167
1383.0,0.0040937,619.397,2652.25,2651.11,0.0017116,0.00170446
1386.0,0.0,619.562,2656.55,2655.4,0.0,-7.13656e-06
1389.0,0.00405749,619.727,2660.84,2659.69,0.00405749,0.00405035
1392.0,0.00362461,619.892,2665.14,2663.98,0.00362461,0.00361748
1395.0,0.0,620.057,2669.43,2668.27,0.0,-7.13398e-06
1398.0,0.00370503,620.222,2673.72,2672.55,0.00317507,0.00316794
1401.0,0.0,620.387,2678.01,2676.84,0.000487526,0.000480394
1404.0,0.00268292,620.551,2682.29,2681.12,0.00268292,0.00267579
1407.0,0.0,620.716,2686.58,2685.39,0.00144629,0.00143916
1410.0,0.00226739,620.881,2690.86,2689.67,0.00226739,0.00226026
1413.0,0.00202791,621.046,2695.14,2693.94,0.00202791,0.00202078
1416.0,0.00248863,621.211,2699.41,2698.21,0.0013827,0.00137557
1419.0,0.000891137,621.376,2703.69,2702.48,0.000844821,0.000837693
1422.0,0.0,621.541,2707.96,2706.75,0.0,-7.12742e-06
1425.0,0.00335031,621.706,2712.23,2711.01,0.00335031,0.00334318
1428.0,0.0022419,621.871,2716.5,2715.27,0.0022419,0.00223477
1431.0,0.00107985,622.036,2720.76,2719.53,0.00107985,0.00107272
1434.0,0.00224942,622.201,2725.03,2723.79,0.00224942,0.0022423
1437.0,0.00468999,622.366,2729.29,2728.05,0.00333239,0.00332527
1440.0,0.000314654,622.531,2733.54,2732.3,0.00333239,0.00332527
1443.0,0.000648866,622.696,2737.8,2736.55,0.00259308,0.00258596
1446.0,0.00385171,622.861,2742.05,2740.8,0.00385171,0.00384459
1449.0,0.00134606,623.026,2746.31,2745.04,0.00134606,0.00133894
1452.0,0.0,623.191,2750.56,2749.29,0.0,-7.11964e-06
1455.0,0.00198446,623.356,2754.8,2753.53,0.00101701,0.00100989
1458.0,0.0,623.521,2759.05,2757.77,0.000465292,0.000458174
1461.0,0.00356957,623.686,2763.29,2762.01,0.0033619,0.00335478
1464.0,0.00485264,623.851,2767.53,2766.24,0.0033619,0.00335478
1467.0,0.0,624.016,2771.77,2770.47,0.0,-7.11583e-06
1470.0,0.00226172,624.181,2776,2774.7,0.00194455,0.00193743
1473.0,0.00343544,624.346,2780.24,2778.93,0.00275078,0.00274367
1476.0,0.00125713,624.511,2784.47,2783.16,0.00143975,0.00143264
1479.0,0.00293583,624.676,2788.7,2787.38,0.00260773,0.00260062
1482.0,0.0,624.841,2792.93,2791.6,0.00110018,0.00109307
1485.0,0.00645441,625.006,2797.15,2795.82,0.00229203,0.00228492
1488.0,0.0,625.171,2801.37,2800.04,0.00229203,0.00228492
1491.0,0.00512975,625.336,2805.59,2804.25,0.00440507,0.00439796
1494.0,0.000667582,625.501,2809.81,2808.47,0.00223942,0.00223231
1497.0,0.00259098,625.666,2814.03,2812.68,0.00223942,0.00223231
1500.0,0.00146217,625.831,2818.24,2816.89,0.00144083,0.00143372
1503.0,0.0,625.996,2822.45,2821.09,0.000242618,0.00023551
1506.0,0.0021094,626.161,2826.66,2825.3,0.0021094,0.00210229
1509.0,0.00135501,626.326,2830.87,2829.5,0.00135501,0.0013479
1512.0,0.00220565,626.491,2835.07,2833.7,0.00213932,0.00213221
1515.0,0.00180034,626.656,2839.27,2837.89,0.00180034,0.00179323
1518.0,0.0,626.821,2843.48,2842.09,9.10403e-05,8.39356e-05
1521.0,0.000197371,626.986,2847.67,2846.28,0.000197371,0.000190267
1524.0,0.0,627.151,2851.87,2850.47,0.0,-7.10332e-06
1527.0,0.00126249,627.316,2856.06,2854.66,0.000214389,0.000207286
1530.0,0.00244552,627.481,2860.25,2858.85,0.00134224,0.00133514
1533.0,0.00283287,627.646,2864.44,2863.03,0.000749088,0.000741987
1536.0,0.0,627.811,2868.63,2867.21,0.000166186,0.000159086
1539.0,0.00101013,627.976,2872.82,2871.39,0.00101013,0.00100303
1542.0,0.00239855,628.141,2877,2875.57,0.00239855,0.00239145
1545.0,0.00806684,628.306,2881.18,2879.74,0.00719727,0.00719017
1548.0,0.000526285,628.471,2885.36,2883.92,0.000526285,0.000519187
1551.0,4.654e-05,628.636,2889.53,2888.09,4.654e-05,3.94428e-05
1554.0,0.00509935,628.801,2893.71,2892.26,0.00398647,0.00397937
1557.0,0.00679492,628.966,2897.88,2896.42,0.00610303,0.00609593
1560.0,0.00553088,629.131,2902.05,2900.59,0.0052997,0.0052926
1563.0,0.0,629.296,2906.21,2904.75,0.000493629,0.000486535
1566.0,0.00484739,629.461,2910.38,2908.91,0.000493629,0.000486535
1569.0,0.0,629.626,2914.54,2913.06,0.0018883,0.00188121
1572.0,0.00663745,629.791,2918.7,2917.22,0.00663745,0.00663036
1575.0,0.00463919,629.956,2922.86,2921.37,0.00463919,0.0046321
1578.0,0.000479896,630.121,2927.02,2925.52,0.000479896,0.000472805
1581.0,0.00154223,630.286,2931.17,2929.67,0.00214421,0.00213712
1584.0,0.0,630.451,2935.32,2933.82,0.00156198,0.00155489
1587.0,0.0,630.616,2939.47,2937.96,0.000881209,0.00087412
1590.0,0.00199763,630.781,2943.62,2942.11,0.00158999,0.0015829
1593.0,0.00234977,630.946,2947.77,2946.25,0.000779482,0.000772394
1596.0,0.0,631.111,2951.91,2950.38,0.000779482,0.000772395
1599.0,0.00425318,631.276,2956.05,2954.52,0.00425318,0.00424609
1602.0,0.0159808,631.441,2960.19,2958.65,0.0159808,0.0159737
1605.0,0.0352271,631.606,2964.33,2962.79,0.0352271,0.03522
1608.0,0.0415711,631.771,2968.46,2966.92,0.0415711,0.041564
1611.0,0.0405789,631.936,2972.6,2971.04,0.0405789,0.0405718
1614.0,0.0266155,632.101,2976.73,2975.17,0.0266155,0.0266084
1617.0,0.0102178,632.266,2980.85,2979.29,0.0102178,0.0102107
1620.0,0.0,632.431,2984.98,2983.41,0.0,-7.08317e-06
1623.0,0.0,632.596,2989.1,2987.53,0.0,-7.08267e-06
1626.0,0.0,632.761,2993.23,2991.65,0.0,-7.08224e-06
1629.0,0.00481193,632.926,2997.35,2995.76,0.00481193,0.00480485
1632.0,0.00966823,633.091,3001.46,2999.87,0.00966823,0.00966115
1635.0,0.0150648,633.256,3005.58,3003.98,0.0141089,0.0141018
1638.0,0.0150807,633.421,3009.69,3008.09,0.0132697,0.0132626
1641.0,0.00524107,633.585,3013.8,3012.2,0.00611559,0.00610851
1644.0,0.00450062,633.75,3017.91,3016.3,0.00450062,0.00449354
1647.0,0.0,633.915,3022.02,3020.4,0.0,-7.07965e-06
1650.0,0.0,634.08,3026.12,3024.5,0.0,-7.07934e-06
1653.0,0.0,634.245,3030.23,3028.6,0.0,-7.07902e-06
1656.0,0.0,634.41,3034.33,3032.69,0.0,-7.07862e-06
1659.0,0.00114792,634.575,3038.42,3036.79,0.00114792,0.00114084
1662.0,0.00309839,634.74,3042.52,3040.88,0.000988646,0.000981568
1665.0,0.0,634.905,3046.61,3044.97,0.000282694,0.000275616
1668.0,0.0,635.07,3050.71,3049.05,0.0,-7.07722e-06
1671.0,0.00028191,635.235,3054.8,3053.14,0.0,-7.07695e-06
1674.0,0.000247323,635.4,3058.88,3057.22,0.000247323,0.000240246
1677.0,0.000838483,635.565,3062.97,3061.3,0.00101933,0.00101225
1680.0,0.00181293,635.73,3067.05,3065.38,0.00120472,0.00119764
1683.0,0.00203293,635.895,3071.13,3069.45,0.00106415,0.00105707
1686.0,0.0,636.06,3075.21,3073.53,0.0,-7.07585e-06
1689.0,0.000370413,636.225,3079.29,3077.6,0.000370413,0.000363337
1692.0,0.000602655,636.39,3083.36,3081.67,0.000415947,0.000408871
1695.0,0.0,636.555,3087.44,3085.74,0.0,-7.07553e-06
1698.0,0.00327169,636.72,3091.51,3089.8,0.00327169,0.00326461
1701.0,0.00191698,636.885,3095.58,3093.87,0.00191698,0.0019099
1704.0,0.000125124,637.05,3099.64,3097.93,0.0,-7.07546e-06
1707.0,0.00109507,637.215,3103.71,3101.99,0.000967803,0.000960728
1710.0,0.0,637.38,3107.77,3106.04,0.000967803,0.000960727
1713.0,0.0,637.545,3111.83,3110.1,0.0,-7.07562e-06
1716.0,0.0,637.71,3115.89,3114.15,0.0,-7.07574e-06
1719.0,0.00301307,637.875,3119.94,3118.2,0.00125707,0.00124999
1722.0,0.00147921,638.04,3124,3122.25,0.00172211,0.00171503
1725.0,0.000594378,638.205,3128.05,3126.3,0.00136677,0.00135969
1728.0,0.00159562,638.37,3132.1,3130.34,0.000519253,0.000512177
1731.0,0.0,638.535,3136.15,3134.38,0.000519253,0.000512177
1734.0,0.00609843,638.7,3140.19,3138.42,0.00280235,0.00279527
1737.0,0.0045329,638.865,3144.24,3142.46,0.00373256,0.00372548
1740.0,0.00206262,639.03,3148.28,3146.5,0.00206262,0.00205554
1743.0,0.0,639.195,3152.32,3150.53,0.000669108,0.000662032
1746.0,0.000257242,639.36,3156.35,3154.56,0.000669108,0.000662032
1749.0,0.00375353,639.525,3160.39,3158.59,0.0026112,0.00260412
1752.0,0.00125997,639.69,3164.42,3162.62,0.00183391,0.00182683
1755.0,0.0,639.855,3168.45,3166.65,0.000231592,0.000224517
1758.0,7.94284e-06,640.02,3172.48,3170.67,7.94284e-06,8.67921e-07
1761.0,0.0011961,640.185,3176.51,3174.69,0.0,-7.07471e-06
1764.0,7.62951e-07,640.35,3180.53,3178.71,7.62951e-07,-6.31159e-06
1767.0,0.00361801,640.515,3184.55,3182.73,0.00257768,0.00257061
1770.0,0.00101472,640.68,3188.58,3186.74,0.00101472,0.00100765
1773.0,0.0,640.845,3192.59,3190.76,0.000285346,0.000278272
1776.0,0.00127163,641.01,3196.61,3194.77,0.00127163,0.00126456
1779.0,0.00255986,641.175,3200.62,3198.78,0.00244098,0.00243391
1782.0,0.00143756,641.34,3204.64,3202.78,0.00175719,0.00175012
1785.0,0.00166629,641.505,3208.65,3206.79,0.00166629,0.00165922
1788.0,0.000608072,641.67,3212.65,3210.79,0.00147236,0.00146529
1791.0,0.0,641.835,3216.66,3214.79,0.000228122,0.000221048
1794.0,0.00213818,642,3220.66,3218.79,0.00213818,0.00213111
1797.0,0.000887427,642.165,3224.67,3222.79,0.00214966,0.00214259
1800.0,0.0,642.33,3228.67,3226.78,0.000196078,0.000189004
1803.0,0.00352576,642.495,3232.66,3230.78,0.00156882,0.00156175
1806.0,0.000632268,642.66,3236.66,3234.77,0.00206308,0.00205601
1809.0,0.0,642.825,3240.65,3238.76,0.000518044,0.00051097
1812.0,0.00166913,642.99,3244.65,3242.74,0.00166913,0.00166206
1815.0,0.00342445,643.155,3248.64,3246.73,0.00342445,0.00341738
1818.0,0.0,643.32,3252.62,3250.71,0.0,-7.07412e-06
1821.0,0.00335572,643.485,3256.61,3254.69,0.00335572,0.00334865
1824.0,0.0,643.65,3260.59,3258.67,0.0,-7.0744e-06
1827.0,0.000857939,643.815,3264.57,3262.64,0.000781638,0.000774563
1830.0,0.0,643.98,3268.55,3266.62,0.00104868,0.00104161
1833.0,0.00596119,644.145,3272.53,3270.59,0.00247424,0.00246716
1836.0,0.0,644.31,3276.51,3274.56,0.000829776,0.000822701
1839.0,0.00221963,644.475,3280.48,3278.53,0.000507494,0.000500418
1842.0,0.0,644.64,3284.45,3282.5,0.000507494,0.000500418
1845.0,0.000841924,644.805,3288.42,3286.46,0.000841924,0.000834848
1848.0,0.0,644.97,3292.39,3290.42,4.45653e-05,3.74889e-05
1851.0,0.000318151,645.135,3296.35,3294.38,0.000347906,0.000340829
1854.0,0.0,645.3,3300.31,3298.34,0.00071692,0.000709843
1857.0,0.00233659,645.465,3304.28,3302.3,0.00122202,0.00121494
1860.0,0.0,645.63,3308.23,3306.25,7.68085e-05,6.97311e-05
1863.0,0.000921645,645.795,3312.19,3310.2,0.000566936,0.000559858
1866.0,0.0,645.96,3316.15,3314.15,0.000566936,0.000559858
1869.0,7.71693e-07,646.125,3320.1,3318.1,0.000750744,0.000743666
1872.0,0.000990097,646.29,3324.05,3322.05,0.00116629,0.00115921
1875.0,0.00346827,646.455,3328,3325.99,0.00283948,0.0028324
1878.0,0.0,646.619,3331.95,3329.93,0.0002121,0.000205022
1881.0,0.000878347,646.784,3335.89,3333.87,0.000608962,0.000601883
1884.0,0.0,646.949,3339.83,3337.81,0.000608962,0.000601883
1887.0,0.00192348,647.114,3343.78,3341.74,0.000839061,0.000831982
1890.0,0.00243379,647.279,3347.71,3345.68,0.00130304,0.00129596
1893.0,0.00123727,647.444,3351.65,3349.61,0.00123727,0.00123019
1896.0,0.0,647.609,3355.59,3353.54,6.1799e-05,5.4719e-05
1899.0,0.000369523,647.774,3359.52,3357.47,6.1799e-05,5.47188e-05
1902.0,0.000739924,647.939,3363.45,3361.39,0.000482931,0.000475851
1905.0,0.00172514,648.104,3367.38,3365.32,0.00172514,0.00171806
1908.0,0.000617316,648.269,3371.31,3369.24,0.000617316,0.000610235
1911.0,0.0,648.434,3375.23,3373.16,5.86953e-07,-6.49399e-06
1914.0,0.00306571,648.599,3379.15,3377.08,0.000978866,0.000971785
1917.0,0.00165068,648.764,3383.07,3380.99,0.000777852,0.000770771
1920.0,0.00430923,648.929,3386.99,3384.91,0.00430923,0.00430215
1923.0,0.00102657,649.094,3390.91,3388.82,0.00148103,0.00147395
1926.0,0.000392658,649.259,3394.83,3392.73,0.000392658,0.000385576
1929.0,0.0,649.424,3398.74,3396.64,0.00082453,0.000817447
1932.0,0.00331353,649.589,3402.65,3400.54,0.00328154,0.00327446
1935.0,0.00336604,649.754,3406.56,3404.45,0.00231028,0.0023032
1938.0,0.0,649.919,3410.47,3408.35,0.000134455,0.000127371
1941.0,0.00165629,650.084,3414.37,3412.25,0.00165629,0.00164921
1944.0,0.00210588,650.249,3418.27,3416.15,0.00176867,0.00176159
1947.0,0.0,650.414,3422.17,3420.04,0.0,-7.08378e-06
1950.0,0.000741525,650.579,3426.07,3423.94,0.000979629,0.000972545
1953.0,0.0015572,650.744,3429.97,3427.83,0.00156926,0.00156218
1956.0,0.00241788,650.909,3433.87,3431.72,0.00241788,0.0024108
1959.0,0.00154613,651.074,3437.76,3435.61,0.0,-7.08428e-06
1962.0,0.0,651.239,3441.65,3439.49,0.0,-7.08446e-06
1965.0,0.00241129,651.404,3445.54,3443.38,3.20002e-05,2.49155e-05
1968.0,0.0,651.569,3449.43,3447.26,0.0,-7.08481e-06
1971.0,0.00166572,651.734,3453.31,3451.14,0.0,-7.08502e-06
1974.0,0.0,651.899,3457.2,3455.02,0.0,-7.08525e-06
1977.0,0.000718922,652.064,3461.08,3458.89,0.000259582,0.000252496
1980.0,0.000496089,652.229,3464.96,3462.77,0.00141104,0.00140395
1983.0,0.00206449,652.394,3468.83,3466.64,0.00183416,0.00182707
1986.0,0.00148224,652.559,3472.71,3470.51,0.00129843,0.00129134
1989.0,0.0,652.724,3476.58,3474.38,0.0,-7.08687e-06
1992.0,0.000932762,652.889,3480.45,3478.25,0.000932762,0.000925675
1995.0,0.00415843,653.054,3484.32,3482.11,0.00199622,0.00198913
1998.0,0.000566996,653.219,3488.19,3485.97,0.000566996,0.000559908
2001.0,9.76577e-05,653.384,3492.06,3489.83,9.07912e-05,8.37027e-05
2004.0,0.00101898,653.549,3495.92,3493.69,0.000792319,0.000785231
2007.0,0.00115675,653.714,3499.78,3497.55,0.00115675,0.00114966
2010.0,0.00361993,653.879,3503.64,3501.4,0.00215233,0.00214524
2013.0,0.000429777,654.044,3507.5,3505.26,0.0,-7.08828e-06
2016.0,0.0,654.209,3511.36,3509.11,0.0,-7.08825e-06
2019.0,0.00500047,654.374,3515.21,3512.96,0.00317081,0.00316372
2022.0,0.0013429,654.539,3519.06,3516.8,0.00280499,0.0027979
2025.0,0.00500759,654.704,3522.91,3520.65,0.00331872,0.00331163
2028.0,0.0,654.869,3526.76,3524.49,0.000325571,0.000318483
2031.0,0.00097612,655.034,3530.61,3528.33,0.000325571,0.000318483
2034.0,6.65595e-05,655.199,3534.45,3532.17,6.65595e-05,5.94711e-05
2037.0,0.0,655.364,3538.29,3536.01,0.0,-7.08829e-06
2040.0,0.00514772,655.529,3542.13,3539.85,0.00514772,0.00514063
2043.0,0.0032946,655.694,3545.97,3543.68,0.0032946,0.00328751
2046.0,0.0,655.859,3549.81,3547.51,0.0,-7.08815e-06
2047.0,0.0,655.914,3551.09,3548.79,0.0,-7.08814e-06