File: data/processed/processed_data/2024-09-03/2024-09-03_aluminumfoil0.5cmaway_n_y_y_solid_1000_0_5.csv
Pixels #,Intensity (a.u.),Wavelength (nm),Raman shift (cm-1),Raman shift (cm-1) adjusted,Filtered Intensity (a.u.),Baselined Filtered Intensity (a.u.)
0.0,0.00121515,543.337,392.223,393.994,0.00121515,0.00115308
3.0,0.00121892,543.502,397.81,399.573,0.00172566,0.00166359
6.0,0.00225354,543.667,403.394,405.15,0.00262732,0.00256525
9.0,0.00288391,543.832,408.974,410.723,0.00288083,0.00281876
12.0,0.00167304,543.997,414.551,416.293,0.00167304,0.00161097
15.0,0.00167786,544.162,420.125,421.859,0.00167786,0.00161579
18.0,0.000828367,544.327,425.695,427.422,0.000828367,0.000766297
21.0,0.0,544.492,431.261,432.981,0.000575265,0.000513196
24.0,0.00265674,544.657,436.825,438.537,0.0015691,0.00150703
27.0,0.00138697,544.822,442.385,444.09,0.0015691,0.00150703
30.0,0.00169873,544.987,447.941,449.64,0.00169873,0.00163666
33.0,0.00244065,545.152,453.494,455.186,0.00197293,0.00191086
36.0,0.000899173,545.317,459.044,460.728,0.00126297,0.0012009
39.0,0.001838,545.482,464.591,466.268,0.001838,0.00177593
42.0,0.00126174,545.647,470.134,471.804,0.0017496,0.00168753
45.0,0.00221785,545.812,475.674,477.337,0.0017496,0.00168753
48.0,0.00130693,545.977,481.21,482.866,0.00130693,0.00124486
51.0,0.00127223,546.142,486.743,488.392,0.00184466,0.00178259
54.0,0.000375267,546.307,492.273,493.915,0.000565362,0.000503294
57.0,0.00308902,546.472,497.8,499.434,0.00253537,0.0024733
60.0,0.00332729,546.637,503.323,504.95,0.00253537,0.0024733
63.0,0.000779473,546.802,508.843,510.463,0.00161654,0.00155447
66.0,0.000252265,546.967,514.359,515.972,0.000864688,0.00080262
69.0,0.00354689,547.132,519.872,521.478,0.00256706,0.00250499
72.0,0.00395238,547.297,525.382,526.981,0.00302159,0.00295952
75.0,0.00177064,547.462,530.888,532.48,0.00302159,0.00295952
78.0,0.00136607,547.627,536.392,537.976,0.00268386,0.00262179
81.0,0.00452116,547.792,541.891,543.469,0.00315051,0.00308844
84.0,0.00308235,547.957,547.388,548.958,0.00376228,0.00370021
87.0,0.00314414,548.122,552.881,554.444,0.00376228,0.00370022
90.0,0.00355997,548.287,558.371,559.927,0.00355997,0.00349791
93.0,0.00399601,548.452,563.858,565.407,0.00351211,0.00345005
96.0,0.00381151,548.617,569.341,570.883,0.00322986,0.0031678
99.0,0.00316263,548.782,574.821,576.356,0.00281147,0.00274941
102.0,0.0025769,548.947,580.298,581.826,0.00263838,0.00257632
105.0,0.00523394,549.112,585.771,587.292,0.00491894,0.00485688
108.0,0.00165195,549.277,591.241,592.755,0.00278164,0.00271958
111.0,0.00408683,549.442,596.708,598.215,0.00345365,0.00339159
114.0,0.0026261,549.607,602.172,603.671,0.0026261,0.00256404
117.0,0.000861544,549.772,607.632,609.125,0.00198483,0.00192277
120.0,0.00626137,549.937,613.089,614.575,0.00461414,0.00455208
123.0,0.00322878,550.102,618.543,620.021,0.004378,0.00431594
126.0,0.0028204,550.267,623.993,625.465,0.0030499,0.00298784
129.0,0.00332864,550.432,629.44,630.905,0.00279748,0.00273542
132.0,0.000385661,550.597,634.884,636.342,0.000385661,0.000323604
135.0,0.000418845,550.762,640.325,641.776,0.000125071,6.30141e-05
138.0,0.00148952,550.927,645.762,647.206,0.00148952,0.00142746
141.0,0.00293365,551.092,651.197,652.633,0.00293365,0.00287159
144.0,0.00236517,551.257,656.627,658.057,0.00260175,0.00253969
147.0,0.00312042,551.422,662.055,663.478,0.00260175,0.00253969
150.0,0.00180625,551.587,667.48,668.895,0.00180625,0.00174419
153.0,0.000674415,551.752,672.901,674.309,0.000422513,0.000360458
156.0,0.0,551.917,678.319,679.72,0.000785712,0.000723657
159.0,0.00203896,552.082,683.733,685.128,0.00107394,0.00101188
162.0,0.00127889,552.247,689.145,690.533,0.00127889,0.00121683
165.0,0.00192895,552.412,694.553,695.934,0.00192895,0.00186689
168.0,0.000783601,552.577,699.958,701.332,0.00101491,0.000952854
171.0,0.00284254,552.742,705.36,706.727,0.00235767,0.00229561
174.0,0.0017292,552.907,710.758,712.118,0.002681,0.00261894
177.0,0.00238459,553.072,716.154,717.507,0.00238459,0.00232253
180.0,0.0,553.237,721.546,722.892,6.21646e-05,1.07154e-07
183.0,0.000803705,553.402,726.935,728.274,0.000784123,0.000722065
186.0,0.000998501,553.567,732.32,733.652,0.000998501,0.000936442
189.0,0.00438501,553.732,737.703,739.028,0.00373157,0.00366951
192.0,0.00372032,553.897,743.082,744.4,0.00372032,0.00365826
195.0,0.00140827,554.062,748.458,749.769,0.00174142,0.00167936
198.0,0.00171161,554.227,753.831,755.135,0.00171161,0.00164955
201.0,0.00189294,554.392,759.201,760.498,0.00189294,0.00183088
204.0,0.00311191,554.557,764.567,765.858,0.00311191,0.00304985
207.0,0.00143342,554.722,769.93,771.214,0.00143342,0.00137136
210.0,0.00120835,554.887,775.29,776.567,0.00120835,0.00114629
213.0,0.00382246,555.052,780.647,781.917,0.00382246,0.00376039
216.0,0.00679535,555.217,786.001,787.264,0.00598797,0.0059259
219.0,0.00327296,555.382,791.352,792.608,0.00413457,0.0040725
222.0,0.0043819,555.546,796.699,797.948,0.0043819,0.00431983
225.0,0.00657107,555.711,802.043,803.285,0.00582733,0.00576526
228.0,0.00530545,555.876,807.384,808.62,0.00530545,0.00524338
231.0,0.00649344,556.041,812.722,813.951,0.00649344,0.00643137
234.0,0.00832207,556.206,818.057,819.278,0.00789306,0.00783099
237.0,0.00880307,556.371,823.388,824.603,0.0085522,0.00849013
240.0,0.00805803,556.536,828.716,829.924,0.0085522,0.00849013
243.0,0.0102333,556.701,834.042,835.243,0.0102333,0.0101712
246.0,0.0104215,556.866,839.364,840.558,0.0104215,0.0103594
249.0,0.0106062,557.031,844.682,845.87,0.0106062,0.0105441
252.0,0.011679,557.196,849.998,851.179,0.0114001,0.011338
255.0,0.00969168,557.361,855.311,856.485,0.00969168,0.0096296
258.0,0.00722989,557.526,860.62,861.787,0.00869725,0.00863517
261.0,0.00932661,557.691,865.927,867.087,0.00877596,0.00871388
264.0,0.0079438,557.856,871.23,872.383,0.00854128,0.0084792
267.0,0.00933799,558.021,876.53,877.676,0.00933799,0.00927591
270.0,0.00816294,558.186,881.827,882.966,0.00863883,0.00857675
273.0,0.00615284,558.351,887.12,888.253,0.00615284,0.00609075
276.0,0.0053495,558.516,892.411,893.537,0.0053495,0.00528741
279.0,0.0071874,558.681,897.698,898.818,0.0071874,0.00712531
282.0,0.00625895,558.846,902.983,904.095,0.00691797,0.00685588
285.0,0.00786532,559.011,908.264,909.37,0.00675899,0.0066969
288.0,0.00589689,559.176,913.542,914.641,0.00544365,0.00538156
291.0,0.00670756,559.341,918.817,919.909,0.00670756,0.00664547
294.0,0.00713874,559.506,924.089,925.174,0.00713874,0.00707665
297.0,0.00735821,559.671,929.358,930.436,0.00677788,0.00671579
300.0,0.00605974,559.836,934.624,935.695,0.00605974,0.00599765
303.0,0.00406105,560.001,939.886,940.951,0.00478161,0.00471951
306.0,0.00738927,560.166,945.146,946.204,0.0067632,0.0067011
309.0,0.00592444,560.331,950.402,951.454,0.00592444,0.00586234
312.0,0.00491239,560.496,955.656,956.7,0.00419909,0.00413699
315.0,0.00270793,560.661,960.906,961.944,0.00310765,0.00304555
318.0,0.00138596,560.826,966.153,967.184,0.00372565,0.00366355
321.0,0.00469378,560.991,971.397,972.421,0.0044077,0.0043456
324.0,0.0042233,561.156,976.638,977.655,0.00388442,0.00382232
327.0,0.00181742,561.321,981.876,982.887,0.00240285,0.00234075
330.0,0.0014248,561.486,987.111,988.115,0.002218,0.0021559
333.0,0.00148859,561.651,992.342,993.34,0.00199253,0.00193042
336.0,0.000702903,561.816,997.571,998.562,0.00199253,0.00193042
339.0,0.00320519,561.981,1002.8,1003.78,0.00176893,0.00170682
342.0,0.00141114,562.146,1008.02,1009,0.00176893,0.00170682
345.0,0.00280921,562.311,1013.24,1014.21,0.00329549,0.00323338
348.0,0.00288532,562.476,1018.45,1019.42,0.00316849,0.00310638
351.0,0.00323814,562.641,1023.67,1024.63,0.00323814,0.00317603
354.0,0.00500857,562.806,1028.88,1029.83,0.00491368,0.00485157
357.0,0.00519635,562.971,1034.09,1035.03,0.00550953,0.00544742
360.0,0.00578775,563.136,1039.29,1040.23,0.00550953,0.00544742
363.0,0.00435474,563.301,1044.49,1045.42,0.00491919,0.00485707
366.0,0.00482,563.466,1049.69,1050.61,0.00482,0.00475788
369.0,0.00489721,563.631,1054.88,1055.8,0.00440707,0.00434495
372.0,0.0055662,563.796,1060.08,1060.99,0.00531171,0.00524959
375.0,0.00429862,563.961,1065.27,1066.17,0.00467856,0.00461644
378.0,0.00411231,564.126,1070.45,1071.35,0.00411231,0.00405019
381.0,0.00473532,564.291,1075.63,1076.52,0.00385994,0.00379782
384.0,0.00270043,564.456,1080.81,1081.7,0.00257779,0.00251567
387.0,0.00171951,564.621,1085.99,1086.87,0.0020845,0.00202238
390.0,0.00285195,564.786,1091.16,1092.03,0.00259626,0.00253414
393.0,0.0,564.951,1096.34,1097.2,0.000923603,0.000861478
396.0,0.000287442,565.116,1101.5,1102.36,0.000287442,0.000225315
399.0,0.00184438,565.281,1106.67,1107.52,0.00158994,0.00152781
402.0,0.00285459,565.446,1111.83,1112.67,0.00226033,0.0021982
405.0,0.00113809,565.611,1116.99,1117.82,0.00180226,0.00174013
408.0,0.00234074,565.776,1122.14,1122.97,0.00234074,0.00227861
411.0,0.0014789,565.941,1127.3,1128.12,0.00250437,0.00244224
414.0,0.00212013,566.106,1132.45,1133.26,0.00212013,0.002058
417.0,0.0,566.271,1137.59,1138.4,0.000702099,0.000639966
420.0,0.00204877,566.436,1142.74,1143.54,0.00173628,0.00167415
423.0,0.0,566.601,1147.88,1148.67,0.00146586,0.00140372
426.0,0.00174161,566.766,1153.02,1153.81,0.00251993,0.00245779
429.0,0.00406994,566.931,1158.15,1158.93,0.00406994,0.0040078
432.0,0.00470422,567.096,1163.28,1164.06,0.00470422,0.00464208
435.0,0.00451297,567.261,1168.41,1169.18,0.00359274,0.0035306
438.0,0.00093991,567.426,1173.54,1174.3,0.00235573,0.00229359
441.0,0.00307031,567.591,1178.66,1179.42,0.00307031,0.00300817
444.0,0.00253924,567.756,1183.78,1184.53,0.00348904,0.00342689
447.0,0.0042606,567.921,1188.9,1189.64,0.00428775,0.0042256
450.0,0.00300419,568.086,1194.01,1194.75,0.00382954,0.00376739
453.0,0.00342036,568.251,1199.12,1199.85,0.00342036,0.00335821
456.0,0.00421198,568.416,1204.23,1204.95,0.00418458,0.00412243
459.0,0.00321928,568.58,1209.33,1210.05,0.00418458,0.00412243
462.0,0.00583709,568.745,1214.44,1215.15,0.00435073,0.00428857
465.0,0.00237226,568.91,1219.53,1220.24,0.00316216,0.0031
468.0,0.00410063,569.075,1224.63,1225.33,0.00316216,0.0031
471.0,0.00176261,569.24,1229.72,1230.42,0.0028744,0.00281224
474.0,0.00470894,569.405,1234.81,1235.5,0.00333767,0.00327551
477.0,0.00205234,569.57,1239.9,1240.58,0.00205234,0.00199018
480.0,0.00467291,569.735,1244.99,1245.66,0.00467291,0.00461075
483.0,0.00371904,569.9,1250.07,1250.73,0.00405087,0.0039887
486.0,0.00378078,570.065,1255.14,1255.8,0.00353897,0.0034768
489.0,0.00264415,570.23,1260.22,1260.87,0.00329119,0.00322902
492.0,0.00310546,570.395,1265.29,1265.94,0.0033218,0.00325963
495.0,0.00297687,570.56,1270.36,1271,0.00297687,0.0029147
498.0,0.00239251,570.725,1275.43,1276.06,0.00228498,0.00222281
501.0,0.00155084,570.89,1280.49,1281.12,0.00228498,0.0022228
504.0,0.00145982,571.055,1285.55,1286.17,0.00145982,0.00139764
507.0,0.0,571.22,1290.61,1291.22,9.80392e-05,3.58602e-05
510.0,0.0,571.385,1295.67,1296.27,0.000458661,0.000396481
513.0,0.00453376,571.55,1300.72,1301.32,0.00271532,0.00265314
516.0,0.00147782,571.715,1305.77,1306.36,0.0025581,0.00249592
519.0,0.00393128,571.88,1310.81,1311.4,0.00376943,0.00370725
522.0,0.00384555,572.045,1315.86,1316.44,0.00368193,0.00361974
525.0,0.00469781,572.21,1320.9,1321.47,0.00405431,0.00399212
528.0,0.0042826,572.375,1325.94,1326.5,0.00405431,0.00399212
531.0,0.0,572.54,1330.97,1331.53,0.00113593,0.00107374
534.0,0.00491308,572.705,1336,1336.56,0.00342539,0.0033632
537.0,0.00296664,572.87,1341.03,1341.58,0.00296664,0.00290445
540.0,0.00220839,573.035,1346.06,1346.6,0.00313887,0.00307667
543.0,0.0045494,573.2,1351.08,1351.61,0.0045494,0.0044872
546.0,0.00700229,573.365,1356.1,1356.63,0.00657234,0.00651014
549.0,0.000741108,573.53,1361.12,1361.64,0.00228521,0.00222301
552.0,0.00382003,573.695,1366.13,1366.65,0.00228521,0.00222301
555.0,0.000783773,573.86,1371.14,1371.65,0.00247193,0.00240973
558.0,0.00384104,574.025,1376.15,1376.65,0.00252769,0.00246548
561.0,0.00420505,574.19,1381.16,1381.65,0.00309894,0.00303673
564.0,0.00251349,574.355,1386.16,1386.65,0.00345829,0.00339608
567.0,0.00336806,574.52,1391.16,1391.64,0.00336806,0.00330585
570.0,0.00227027,574.685,1396.16,1396.63,0.0023758,0.00231359
573.0,0.00420838,574.85,1401.15,1401.62,0.00358218,0.00351997
576.0,0.00424212,575.015,1406.14,1406.61,0.00368668,0.00362447
579.0,0.0023473,575.18,1411.13,1411.59,0.00257965,0.00251743
582.0,0.00246197,575.345,1416.12,1416.57,0.00257965,0.00251743
585.0,0.00355486,575.51,1421.1,1421.54,0.00259274,0.00253052
588.0,0.00213242,575.675,1426.08,1426.52,0.00202374,0.00196152
591.0,0.00198042,575.84,1431.06,1431.49,0.00167365,0.00161143
594.0,0.00389644,576.005,1436.03,1436.46,0.00258197,0.00251975
597.0,0.0012979,576.17,1441,1441.42,0.0012979,0.00123568
600.0,0.000282098,576.335,1445.97,1446.38,0.000978414,0.00091619
603.0,0.00168522,576.5,1450.94,1451.34,0.00247786,0.00241564
606.0,0.0,576.665,1455.9,1456.3,0.000469139,0.000406914
609.0,0.00161916,576.83,1460.86,1461.25,0.00161916,0.00155693
612.0,0.000134716,576.995,1465.82,1466.2,0.0016537,0.00159147
615.0,0.00161859,577.16,1470.77,1471.15,0.0012712,0.00120897
618.0,0.00224989,577.325,1475.72,1476.1,0.00224989,0.00218766
621.0,0.00311508,577.49,1480.67,1481.04,0.00311508,0.00305285
624.0,0.00316138,577.655,1485.62,1485.98,0.00307553,0.0030133
627.0,0.00104596,577.82,1490.56,1490.91,0.00146382,0.00140159
630.0,0.00123973,577.985,1495.5,1495.85,0.00146382,0.00140159
633.0,0.00200623,578.15,1500.44,1500.78,0.00204433,0.0019821
636.0,0.00189896,578.315,1505.37,1505.71,0.00223771,0.00217548
639.0,0.0012833,578.48,1510.3,1510.63,0.00237841,0.00231618
642.0,0.00153741,578.645,1515.23,1515.55,0.00156866,0.00150643
645.0,0.00247426,578.81,1520.16,1520.47,0.00170435,0.00164212
648.0,0.000235615,578.975,1525.08,1525.39,0.00170435,0.00164212
651.0,0.00173908,579.14,1530,1530.31,0.00236708,0.00230485
654.0,0.00277714,579.305,1534.92,1535.22,0.00277714,0.00271491
657.0,0.00350916,579.47,1539.83,1540.13,0.00350916,0.00344694
660.0,0.00317217,579.635,1544.75,1545.03,0.00373138,0.00366916
663.0,0.0023316,579.8,1549.65,1549.93,0.0023316,0.00226938
666.0,0.00185994,579.965,1554.56,1554.83,0.00217414,0.00211192
669.0,0.00209234,580.13,1559.47,1559.73,0.00235018,0.00228796
672.0,0.00265647,580.295,1564.37,1564.63,0.00265647,0.00259425
675.0,0.00186762,580.46,1569.26,1569.52,0.00186762,0.0018054
678.0,0.00182538,580.625,1574.16,1574.41,0.000928544,0.000866323
681.0,0.00193766,580.79,1579.05,1579.29,0.00193766,0.00187544
684.0,0.00203643,580.955,1583.94,1584.18,0.00203643,0.00197421
687.0,0.00168223,581.12,1588.83,1589.06,0.00186826,0.00180604
690.0,0.0040684,581.285,1593.71,1593.94,0.00328081,0.00321859
693.0,0.00161266,581.45,1598.59,1598.81,0.00268824,0.00262602
696.0,0.00271886,581.614,1603.47,1603.68,0.00271886,0.00265664
699.0,0.00179688,581.779,1608.35,1608.55,0.00179688,0.00173466
702.0,0.00162375,581.944,1613.22,1613.42,0.000892678,0.000830461
705.0,0.000819955,582.109,1618.09,1618.28,0.000829779,0.000767562
708.0,0.00175664,582.274,1622.96,1623.15,0.00289813,0.00283591
711.0,0.00624577,582.439,1627.83,1628,0.00354575,0.00348354
714.0,0.00271618,582.604,1632.69,1632.86,0.00354575,0.00348354
717.0,0.00519622,582.769,1637.55,1637.71,0.00391608,0.00385387
720.0,0.0,582.934,1642.4,1642.56,2.13626e-05,-4.08485e-05
723.0,0.0019059,583.099,1647.26,1647.41,0.0019059,0.00184369
726.0,0.00342187,583.264,1652.11,1652.26,0.00342187,0.00335966
729.0,0.00474864,583.429,1656.96,1657.1,0.00330288,0.00324067
732.0,0.00166567,583.594,1661.8,1661.94,0.00314436,0.00308215
735.0,0.00390811,583.759,1666.65,1666.77,0.00368067,0.00361846
738.0,0.00165513,583.924,1671.49,1671.61,0.00165513,0.00159292
741.0,0.00411087,584.089,1676.32,1676.44,0.0021132,0.00205099
744.0,0.000920512,584.254,1681.16,1681.27,0.0021132,0.00205099
747.0,0.00218535,584.419,1685.99,1686.09,0.00210957,0.00204736
750.0,0.00239631,584.584,1690.82,1690.92,0.00210957,0.00204737
753.0,0.000838024,584.749,1695.65,1695.74,0.00159793,0.00153573
756.0,0.00289821,584.914,1700.47,1700.55,0.00281578,0.00275358
759.0,0.00265364,585.079,1705.29,1705.37,0.0025251,0.0024629
762.0,0.000674644,585.244,1710.11,1710.18,0.0012202,0.001158
765.0,0.00288773,585.409,1714.92,1714.99,0.00139125,0.00132905
768.0,0.00270396,585.574,1719.74,1719.8,0.00267026,0.00260806
771.0,0.00112729,585.739,1724.55,1724.6,0.00205402,0.00199182
774.0,0.0033091,585.904,1729.35,1729.4,0.00288247,0.00282027
777.0,0.00408002,586.069,1734.16,1734.2,0.00375837,0.00369617
780.0,0.0,586.234,1738.96,1739,0.000195315,0.000133116
783.0,0.00171415,586.399,1743.76,1743.79,0.00171415,0.00165195
786.0,0.00211471,586.564,1748.56,1748.58,0.00228928,0.00222708
789.0,0.00478723,586.729,1753.35,1753.37,0.00408276,0.00402056
792.0,0.00224554,586.894,1758.14,1758.15,0.0031578,0.0030956
795.0,0.00407231,587.059,1762.93,1762.94,0.00305526,0.00299307
798.0,0.00184155,587.224,1767.72,1767.72,0.00293427,0.00287208
801.0,0.00280439,587.389,1772.5,1772.49,0.00293427,0.00287208
804.0,0.00332621,587.554,1777.28,1777.27,0.00286355,0.00280136
807.0,0.0,587.719,1782.06,1782.04,0.000138857,7.66658e-05
810.0,0.00247845,587.884,1786.83,1786.81,0.00247845,0.00241626
813.0,0.0030548,588.049,1791.61,1791.57,0.0030548,0.00299261
816.0,0.00145415,588.214,1796.38,1796.34,0.00218191,0.00211972
819.0,0.00149787,588.379,1801.14,1801.1,0.00275753,0.00269534
822.0,0.00323467,588.544,1805.91,1805.86,0.00323467,0.00317248
825.0,0.00235253,588.709,1810.67,1810.61,0.00235253,0.00229034
828.0,0.00382603,588.874,1815.43,1815.37,0.00382603,0.00376385
831.0,0.00440519,589.039,1820.19,1820.12,0.00399241,0.00393023
834.0,0.00129473,589.204,1824.94,1824.86,0.00177,0.00170782
837.0,0.00183441,589.369,1829.69,1829.61,0.00154867,0.00148649
840.0,0.00209211,589.534,1834.44,1834.35,0.00154867,0.00148649
843.0,0.000496646,589.699,1839.18,1839.09,0.000496646,0.000434467
846.0,0.00198322,589.864,1843.93,1843.83,0.00079486,0.000732682
849.0,0.00151771,590.029,1848.67,1848.56,0.00198432,0.00192214
852.0,0.00361986,590.194,1853.41,1853.29,0.00361986,0.00355768
855.0,0.00260427,590.359,1858.14,1858.02,0.00357896,0.00351679
858.0,0.00385149,590.524,1862.87,1862.75,0.00357896,0.00351679
861.0,0.0019997,590.689,1867.6,1867.47,0.0038415,0.00377933
864.0,0.00450127,590.854,1872.33,1872.2,0.00408443,0.00402226
867.0,0.00377497,591.019,1877.06,1876.91,0.00407914,0.00401697
870.0,0.004052,591.184,1881.78,1881.63,0.00403711,0.00397494
873.0,0.00328775,591.349,1886.5,1886.34,0.00278343,0.00272126
876.0,0.00225649,591.514,1891.21,1891.05,0.00225649,0.00219432
879.0,0.000137281,591.679,1895.93,1895.76,0.000725908,0.000663743
882.0,0.00337244,591.844,1900.64,1900.47,0.00337244,0.00331028
885.0,0.00184822,592.009,1905.35,1905.17,0.00184822,0.00178606
888.0,0.00377122,592.174,1910.05,1909.87,0.00304775,0.00298559
891.0,0.0022712,592.339,1914.76,1914.57,0.0022712,0.00220904
894.0,0.0038243,592.504,1919.46,1919.26,0.00164119,0.00157903
897.0,0.0,592.669,1924.16,1923.96,0.00169047,0.00162831
900.0,0.00303396,592.834,1928.85,1928.64,0.00320336,0.0031412
903.0,0.00351529,592.999,1933.55,1933.33,0.00351529,0.00345314
906.0,0.00257253,593.164,1938.24,1938.02,0.002028,0.00196585
909.0,0.00183133,593.329,1942.93,1942.7,0.00189812,0.00183597
912.0,0.00215104,593.494,1947.61,1947.38,0.0019406,0.00187845
915.0,0.000864217,593.659,1952.29,1952.05,0.000864507,0.000802357
918.0,0.000773728,593.824,1956.97,1956.73,0.000864507,0.000802358
921.0,0.00342421,593.989,1961.65,1961.4,0.00286334,0.00280119
924.0,0.00292351,594.154,1966.33,1966.07,0.00286676,0.00280461
927.0,0.00265283,594.319,1971,1970.73,0.00265283,0.00259068
930.0,0.00186173,594.484,1975.67,1975.4,0.00186173,0.00179958
933.0,0.00299963,594.648,1980.33,1980.06,0.00349624,0.0034341
936.0,0.000351166,594.813,1985,1984.72,0.00217384,0.0021117
939.0,0.00645306,594.978,1989.66,1989.37,0.00430079,0.00423865
942.0,0.00366273,595.143,1994.32,1994.03,0.00366273,0.00360059
945.0,0.0,595.308,1998.98,1998.68,0.00113,0.00106786
948.0,0.00252803,595.473,2003.63,2003.33,0.0015979,0.00153576
951.0,0.00253235,595.638,2008.28,2007.97,0.00253235,0.00247021
954.0,0.00386078,595.803,2012.93,2012.62,0.0036699,0.00360776
957.0,0.00125786,595.968,2017.58,2017.26,0.00116658,0.00110444
960.0,0.002078,596.133,2022.22,2021.89,0.000943169,0.00088103
963.0,0.00412535,596.298,2026.86,2026.53,0.00285734,0.0027952
966.0,0.00231042,596.463,2031.5,2031.16,0.00285734,0.0027952
969.0,0.00351216,596.628,2036.14,2035.79,0.00351216,0.00345002
972.0,0.00482948,596.793,2040.77,2040.42,0.0046131,0.00455096
975.0,0.00219828,596.958,2045.4,2045.05,0.00237846,0.00231632
978.0,0.00408342,597.123,2050.03,2049.67,0.0023927,0.00233056
981.0,0.000467591,597.288,2054.66,2054.29,0.0020329,0.00197076
984.0,0.00332147,597.453,2059.28,2058.91,0.00317353,0.00311139
987.0,0.0029794,597.618,2063.9,2063.52,0.0029794,0.00291726
990.0,0.000906939,597.783,2068.52,2068.13,0.00202981,0.00196767
993.0,0.00250884,597.948,2073.14,2072.74,0.00314044,0.00307831
996.0,0.00499868,598.113,2077.75,2077.35,0.00368011,0.00361798
999.0,0.00375899,598.278,2082.36,2081.95,0.00317634,0.00311421
1002.0,0.00164987,598.443,2086.97,2086.56,0.002071,0.00200887
1005.0,0.00181144,598.608,2091.57,2091.16,0.00177797,0.00171584
1008.0,0.00257689,598.773,2096.18,2095.75,0.00257689,0.00251476
1011.0,0.00277426,598.938,2100.78,2100.35,0.00275057,0.00268844
1014.0,0.00185257,599.103,2105.38,2104.94,0.00122299,0.00116086
1017.0,0.0,599.268,2109.97,2109.53,0.0,-6.21329e-05
1020.0,0.00514794,599.433,2114.56,2114.12,0.0038877,0.00382557
1023.0,0.00476992,599.598,2119.15,2118.7,0.00384928,0.00378715
1026.0,0.00162325,599.763,2123.74,2123.28,0.00242971,0.00236758
1029.0,0.00366091,599.928,2128.33,2127.86,0.00361907,0.00355694
1032.0,0.00262596,600.093,2132.91,2132.44,0.00262596,0.00256383
1035.0,0.000750204,600.258,2137.49,2137.01,0.000750204,0.00068807
1038.0,0.00247155,600.423,2142.07,2141.59,0.002206,0.00214387
1041.0,0.00354254,600.588,2146.64,2146.15,0.0029655,0.00290336
1044.0,0.00167678,600.753,2151.22,2150.72,0.00167678,0.00161464
1047.0,0.00315687,600.918,2155.79,2155.29,0.00240625,0.00234411
1050.0,0.00117547,601.083,2160.35,2159.85,0.0025786,0.00251646
1053.0,0.00341823,601.248,2164.92,2164.41,0.00333819,0.00327605
1056.0,0.00496727,601.413,2169.48,2168.96,0.00309035,0.00302821
1059.0,0.00205053,601.578,2174.04,2173.52,0.00205053,0.00198839
1062.0,0.00125931,601.743,2178.6,2178.07,0.00125931,0.00119717
1065.0,0.00201007,601.908,2183.16,2182.62,0.00201007,0.00194793
1068.0,0.00156185,602.073,2187.71,2187.17,0.00156185,0.00149971
1071.0,0.0032525,602.238,2192.26,2191.71,0.00314423,0.00308209
1074.0,0.00338959,602.403,2196.81,2196.25,0.00293914,0.002877
1077.0,0.00166097,602.568,2201.35,2200.79,0.00202105,0.00195891
1080.0,0.00324009,602.733,2205.89,2205.33,0.00312418,0.00306204
1083.0,0.00332355,602.898,2210.43,2209.86,0.00297791,0.00291577
1086.0,0.0044865,603.063,2214.97,2214.4,0.0040419,0.00397976
1089.0,0.00392442,603.228,2219.51,2218.92,0.00337273,0.00331059
1092.0,0.0,603.393,2224.04,2223.45,0.000952829,0.000890685
1095.0,0.00309549,603.558,2228.57,2227.98,0.00185646,0.00179432
1098.0,0.0,603.723,2233.1,2232.5,0.00096782,0.000905674
1101.0,0.00468446,603.888,2237.62,2237.02,0.00468446,0.00462231
1104.0,0.00388931,604.053,2242.15,2241.54,0.00388931,0.00382716
1107.0,0.00204464,604.218,2246.67,2246.05,0.00186087,0.00179872
1110.0,0.00186368,604.383,2251.19,2250.56,0.00186368,0.00180153
1113.0,0.00489992,604.548,2255.7,2255.07,0.00384711,0.00378496
1116.0,0.00371325,604.713,2260.21,2259.58,0.00384711,0.00378496
1119.0,0.00178594,604.878,2264.72,2264.08,0.00178594,0.00172379
1122.0,0.00131241,605.043,2269.23,2268.59,0.00131241,0.00125025
1125.0,0.000935745,605.208,2273.74,2273.09,0.00197133,0.00190917
1128.0,0.00314248,605.373,2278.24,2277.58,0.00314248,0.00308032
1131.0,0.00231175,605.538,2282.74,2282.08,0.00231175,0.00224959
1134.0,0.00123054,605.703,2287.24,2286.57,0.00223901,0.00217685
1137.0,0.00232735,605.868,2291.74,2291.06,0.00299149,0.00292933
1140.0,0.0016044,606.033,2296.23,2295.55,0.00299149,0.00292933
1143.0,0.00239433,606.198,2300.72,2300.03,0.00245544,0.00239328
1146.0,0.00224659,606.363,2305.21,2304.52,0.00193031,0.00186815
1149.0,0.00234529,606.528,2309.7,2309,0.00173986,0.00167769
1152.0,0.000337494,606.693,2314.18,2313.47,0.00172853,0.00166636
1155.0,0.00309907,606.858,2318.66,2317.95,0.00264259,0.00258042
1158.0,0.00328674,607.023,2323.14,2322.42,0.00313622,0.00307405
1161.0,0.00341909,607.188,2327.62,2326.89,0.00290117,0.002839
1164.0,0.000729452,607.353,2332.09,2331.36,0.00205712,0.00199495
1167.0,0.00283931,607.518,2336.56,2335.83,0.00196198,0.00189981
1170.0,0.00099865,607.682,2341.03,2340.29,0.00191234,0.00185017
1173.0,0.00289481,607.847,2345.5,2344.75,0.00194115,0.00187897
1176.0,0.00205474,608.012,2349.96,2349.21,0.00205474,0.00199256
1179.0,0.00131645,608.177,2354.42,2353.67,0.00131645,0.00125427
1182.0,0.00221786,608.342,2358.88,2358.12,0.00221786,0.00215568
1185.0,0.0010478,608.507,2363.34,2362.57,0.00146567,0.00140349
1188.0,0.0,608.672,2367.79,2367.02,0.00118096,0.00111878
1191.0,0.00276012,608.837,2372.25,2371.47,0.00169918,0.001637
1194.0,0.00287689,609.002,2376.7,2375.91,0.00227699,0.00221481
1197.0,0.00186083,609.167,2381.14,2380.35,0.00234215,0.00227997
1200.0,0.00311759,609.332,2385.59,2384.79,0.00311759,0.0030554
1203.0,0.00222837,609.497,2390.03,2389.23,0.0014775,0.00141531
1206.0,0.00165584,609.662,2394.47,2393.66,0.00154838,0.00148619
1209.0,0.00315163,609.827,2398.91,2398.09,0.00315163,0.00308944
1212.0,0.00378287,609.992,2403.34,2402.52,0.00466323,0.00460104
1215.0,0.00388239,610.157,2407.78,2406.95,0.00388239,0.0038202
1218.0,0.000872816,610.322,2412.21,2411.38,0.0012795,0.00121731
1221.0,0.00423992,610.487,2416.63,2415.8,0.00362246,0.00356027
1224.0,0.0,610.652,2421.06,2420.22,0.00109054,0.00102835
1227.0,0.000753154,610.817,2425.48,2424.64,0.000753154,0.000690959
1230.0,0.00274337,610.982,2429.9,2429.05,0.00274337,0.00268117
1233.0,0.00430243,611.147,2434.32,2433.46,0.0038613,0.0037991
1236.0,0.00337349,611.312,2438.74,2437.87,0.00337349,0.00331129
1239.0,0.00246825,611.477,2443.15,2442.28,0.00248087,0.00241867
1242.0,0.00137012,611.642,2447.56,2446.69,0.00137012,0.00130792
1245.0,0.0,611.807,2451.97,2451.09,0.000250157,0.000187955
1248.0,0.00271532,611.972,2456.38,2455.49,0.00182766,0.00176546
1251.0,0.00177245,612.137,2460.78,2459.89,0.00182766,0.00176546
1254.0,0.00216922,612.302,2465.19,2464.29,0.00246514,0.00240294
1257.0,0.00206782,612.467,2469.59,2468.68,0.00206782,0.00200562
1260.0,0.00107967,612.632,2473.98,2473.07,0.00107967,0.00101747
1263.0,0.00156898,612.797,2478.38,2477.46,0.00168235,0.00162015
1266.0,0.00254101,612.962,2482.77,2481.85,0.00178787,0.00172566
1269.0,0.00255545,613.127,2487.16,2486.23,0.00255545,0.00249324
1272.0,0.0020519,613.292,2491.55,2490.61,0.0020519,0.00198969
1275.0,0.000502579,613.457,2495.93,2494.99,0.0019507,0.00188849
1278.0,0.00451757,613.622,2500.32,2499.37,0.0029731,0.00291089
1281.0,0.0,613.787,2504.7,2503.75,0.000820184,0.000757976
1284.0,0.00275677,613.952,2509.07,2508.12,0.00275677,0.00269456
1287.0,0.00307438,614.117,2513.45,2512.49,0.00307438,0.00301217
1290.0,0.00228305,614.282,2517.82,2516.86,0.00232416,0.00226195
1293.0,0.0030041,614.447,2522.19,2521.22,0.0030041,0.00294189
1296.0,0.00253065,614.612,2526.56,2525.59,0.00294442,0.00288221
1299.0,0.00197057,614.777,2530.93,2529.95,0.00201319,0.00195098
1302.0,0.000347322,614.942,2535.29,2534.3,0.00201319,0.00195098
1305.0,0.00453482,615.107,2539.66,2538.66,0.00269104,0.00262883
1308.0,0.000351968,615.272,2544.02,2543.01,0.00238536,0.00232315
1311.0,0.00303157,615.437,2548.37,2547.37,0.00233141,0.0022692
1314.0,0.000169175,615.602,2552.73,2551.72,0.0009894,0.00092719
1317.0,0.00206819,615.767,2557.08,2556.06,0.00206819,0.00200598
1320.0,0.00283387,615.932,2561.43,2560.41,0.00257651,0.0025143
1323.0,0.00284745,616.097,2565.78,2564.75,0.00168871,0.0016265
1326.0,0.00442203,616.262,2570.12,2569.09,0.00284494,0.00278273
1329.0,0.00229923,616.427,2574.47,2573.43,0.00284494,0.00278273
1332.0,0.00171579,616.592,2578.81,2577.76,0.00171579,0.00165358
1335.0,0.000462,616.757,2583.15,2582.09,0.000462,0.00039979
1338.0,0.00440013,616.922,2587.48,2586.42,0.00395618,0.00389397
1341.0,0.00265005,617.087,2591.82,2590.75,0.00274951,0.0026873
1344.0,0.00297013,617.252,2596.15,2595.08,0.00280504,0.00274283
1347.0,0.00219244,617.417,2600.48,2599.4,0.00280504,0.00274283
1350.0,0.0039056,617.582,2604.8,2603.72,0.00310375,0.00304154
1353.0,0.00134773,617.747,2609.13,2608.04,0.00363593,0.00357372
1356.0,0.00419089,617.912,2613.45,2612.36,0.00439378,0.00433157
1359.0,0.00421333,618.077,2617.77,2616.67,0.00421333,0.00415112
1362.0,0.00232739,618.242,2622.09,2620.99,0.00251769,0.00245548
1365.0,0.00214319,618.407,2626.4,2625.3,0.00281372,0.00275151
1368.0,0.00258549,618.572,2630.72,2629.6,0.0027933,0.00273109
1371.0,0.0,618.737,2635.03,2633.91,9.91836e-05,3.69724e-05
1374.0,0.000921263,618.902,2639.34,2638.21,0.000921263,0.000859051
1377.0,0.00365814,619.067,2643.64,2642.51,0.00291279,0.00285058
1380.0,0.00108697,619.232,2647.95,2646.81,0.00108697,0.00102476
1383.0,0.000720071,619.397,2652.25,2651.11,0.00108287,0.00102066
1386.0,0.00435235,619.562,2656.55,2655.4,0.00435235,0.00429014
1389.0,0.00634714,619.727,2660.84,2659.69,0.0059652,0.00590299
1392.0,0.0017454,619.892,2665.14,2663.98,0.00266072,0.00259851
1395.0,0.00597095,620.057,2669.43,2668.27,0.00507124,0.00500903
1398.0,0.00403357,620.222,2673.72,2672.55,0.00403357,0.00397136
1401.0,0.00193581,620.387,2678.01,2676.84,0.00279161,0.0027294
1404.0,0.00330073,620.551,2682.29,2681.12,0.00289642,0.00283421
1407.0,0.000863891,620.716,2686.58,2685.39,0.00289642,0.00283421
1410.0,0.00317168,620.881,2690.86,2689.67,0.00283163,0.00276942
1413.0,0.00203705,621.046,2695.14,2693.94,0.00224138,0.00217917
1416.0,0.00310225,621.211,2699.41,2698.21,0.00254073,0.00247852
1419.0,0.00275712,621.376,2703.69,2702.48,0.00275712,0.00269491
1422.0,0.00279276,621.541,2707.96,2706.75,0.00279276,0.00273055
1425.0,0.00127843,621.706,2712.23,2711.01,0.00127843,0.00121622
1428.0,0.00148496,621.871,2716.5,2715.27,0.00148496,0.00142275
1431.0,0.00244401,622.036,2720.76,2719.53,0.00244401,0.0023818
1434.0,0.00261555,622.201,2725.03,2723.79,0.00261555,0.00255334
1437.0,0.00402864,622.366,2729.29,2728.05,0.00354124,0.00347903
1440.0,0.00121059,622.531,2733.54,2732.3,0.00200966,0.00194745
1443.0,0.00350496,622.696,2737.8,2736.55,0.00350415,0.00344194
1446.0,0.0041524,622.861,2742.05,2740.8,0.00350415,0.00344194
1449.0,0.00266152,623.026,2746.31,2745.04,0.00266152,0.00259931
1452.0,0.000997005,623.191,2750.56,2749.29,0.000997005,0.000934792
1455.0,0.00292467,623.356,2754.8,2753.53,0.00232096,0.00225875
1458.0,0.000699237,623.521,2759.05,2757.77,0.00232096,0.00225875
1461.0,0.000948962,623.686,2763.29,2762.01,0.00235989,0.00229768
1464.0,0.00279837,623.851,2767.53,2766.24,0.002367,0.00230479
1467.0,0.000723382,624.016,2771.77,2770.47,0.000723382,0.000661168
1470.0,0.000839613,624.181,2776,2774.7,0.000839613,0.000777398
1473.0,0.0014056,624.346,2780.24,2778.93,0.00232296,0.00226074
1476.0,0.00219244,624.511,2784.47,2783.16,0.00219244,0.00213022
1479.0,0.00146932,624.676,2788.7,2787.38,0.00177953,0.00171731
1482.0,0.00236065,624.841,2792.93,2791.6,0.0026116,0.00254938
1485.0,0.00273791,625.006,2797.15,2795.82,0.00273791,0.00267569
1488.0,0.00103583,625.171,2801.37,2800.04,0.00145804,0.00139582
1491.0,0.00366989,625.336,2805.59,2804.25,0.00292096,0.00285874
1494.0,0.00172233,625.501,2809.81,2808.47,0.00270298,0.00264076
1497.0,0.00319461,625.666,2814.03,2812.68,0.00270298,0.00264076
1500.0,0.000777035,625.831,2818.24,2816.89,0.000777035,0.000714814
1503.0,0.00133911,625.996,2822.45,2821.09,0.000682078,0.000619857
1506.0,0.0,626.161,2826.66,2825.3,0.000906972,0.00084475
1509.0,0.00258011,626.326,2830.87,2829.5,0.00148223,0.00142001
1512.0,0.00283403,626.491,2835.07,2833.7,0.00283294,0.00277072
1515.0,0.00147235,626.656,2839.27,2837.89,0.00195221,0.00188998
1518.0,0.00172219,626.821,2843.48,2842.09,0.00173667,0.00167444
1521.0,0.00271833,626.986,2847.67,2846.28,0.0023671,0.00230487
1524.0,0.0020486,627.151,2851.87,2850.47,0.0026269,0.00256467
1527.0,0.00306996,627.316,2856.06,2854.66,0.00264368,0.00258145
1530.0,0.00353531,627.481,2860.25,2858.85,0.00353531,0.00347308
1533.0,0.00308226,627.646,2864.44,2863.03,0.00308226,0.00302003
1536.0,0.00112722,627.811,2868.63,2867.21,0.00112722,0.00106499
1539.0,0.0023458,627.976,2872.82,2871.39,0.00191752,0.00185529
1542.0,0.00241833,628.141,2877,2875.57,0.00241833,0.0023561
1545.0,0.00327011,628.306,2881.18,2879.74,0.00327011,0.00320788
1548.0,0.0018936,628.471,2885.36,2883.92,0.00192703,0.0018648
1551.0,0.000453093,628.636,2889.53,2888.09,0.000745509,0.000683274
1554.0,0.00282956,628.801,2893.71,2892.26,0.00282956,0.00276732
1557.0,0.00308173,628.966,2897.88,2896.42,0.00308173,0.00301949
1560.0,0.00290964,629.131,2902.05,2900.59,0.00341397,0.00335173
1563.0,0.00305198,629.296,2906.21,2904.75,0.00305198,0.00298974
1566.0,0.00144716,629.461,2910.38,2908.91,0.00144716,0.00138492
1569.0,0.000836735,629.626,2914.54,2913.06,0.00128379,0.00122155
1572.0,0.0023131,629.791,2918.7,2917.22,0.0023131,0.00225086
1575.0,0.00422051,629.956,2922.86,2921.37,0.00292439,0.00286215
1578.0,0.00154508,630.121,2927.02,2925.52,0.00239202,0.00232978
1581.0,0.0,630.286,2931.17,2929.67,0.0022654,0.00220316
1584.0,0.00312388,630.451,2935.32,2933.82,0.00231401,0.00225176
1587.0,0.0012608,630.616,2939.47,2937.96,0.0012608,0.00119855
1590.0,0.00114487,630.781,2943.62,2942.11,0.00114487,0.00108262
1593.0,0.00225218,630.946,2947.77,2946.25,0.00149008,0.00142783
1596.0,0.0017886,631.111,2951.91,2950.38,0.0017886,0.00172635
1599.0,0.0021146,631.276,2956.05,2954.52,0.0021146,0.00205235
1602.0,0.00060752,631.441,2960.19,2958.65,0.00136734,0.00130509
1605.0,0.0042335,631.606,2964.33,2962.79,0.00293403,0.00287177
1608.0,0.000582969,631.771,2968.46,2966.92,0.000636843,0.000574586
1611.0,0.000743209,631.936,2972.6,2971.04,0.00138,0.00131774
1614.0,0.00233644,632.101,2976.73,2975.17,0.00209813,0.00203587
1617.0,0.00197629,632.266,2980.85,2979.29,0.0035149,0.00345264
1620.0,0.00348615,632.431,2984.98,2983.41,0.00348615,0.00342389
1623.0,0.0,632.596,2989.1,2987.53,0.00154572,0.00148346
1626.0,0.00325945,632.761,2993.23,2991.65,0.00325945,0.00319719
1629.0,0.00270122,632.926,2997.35,2995.76,0.00270122,0.00263895
1632.0,0.00137658,633.091,3001.46,2999.87,0.000938933,0.000876665
1635.0,0.00137589,633.256,3005.58,3003.98,0.00112481,0.00106254
1638.0,0.000758117,633.421,3009.69,3008.09,0.00108526,0.00102299
1641.0,0.00120174,633.585,3013.8,3012.2,0.00120174,0.00113947
1644.0,0.00237409,633.75,3017.91,3016.3,0.00169218,0.00162991
1647.0,0.00253865,633.915,3022.02,3020.4,0.00219464,0.00213236
1650.0,0.000785907,634.08,3026.12,3024.5,0.00104547,0.000983193
1653.0,0.00101309,634.245,3030.23,3028.6,0.000852419,0.000790141
1656.0,0.000651446,634.41,3034.33,3032.69,0.000852419,0.00079014
1659.0,0.00172396,634.575,3038.42,3036.79,0.00168387,0.00162159
1662.0,0.00209259,634.74,3042.52,3040.88,0.00170216,0.00163988
1665.0,0.00351592,634.905,3046.61,3044.97,0.00351592,0.00345364
1668.0,0.00140084,635.07,3050.71,3049.05,0.00140084,0.00133856
1671.0,0.00204002,635.235,3054.8,3053.14,0.00204002,0.00197773
1674.0,0.00219841,635.4,3058.88,3057.22,0.00219841,0.00213612
1677.0,0.0024679,635.565,3062.97,3061.3,0.0024679,0.00240561
1680.0,0.00371197,635.73,3067.05,3065.38,0.00371197,0.00364968
1683.0,0.00103557,635.895,3071.13,3069.45,0.00103557,0.00097328
1686.0,0.0,636.06,3075.21,3073.53,0.000458534,0.000396242
1689.0,9.36282e-05,636.225,3079.29,3077.6,0.000458534,0.000396241
1692.0,0.00288793,636.39,3083.36,3081.67,0.00246856,0.00240626
1695.0,0.00204455,636.555,3087.44,3085.74,0.0018871,0.0018248
1698.0,0.00224475,636.72,3091.51,3089.8,0.00290274,0.00284044
1701.0,0.00192582,636.885,3095.58,3093.87,0.00192582,0.00186352
1704.0,7.43684e-05,637.05,3099.64,3097.93,0.000578098,0.000515796
1707.0,0.00293724,637.215,3103.71,3101.99,0.00155468,0.00149238
1710.0,0.00131919,637.38,3107.77,3106.04,0.00155468,0.00149238
1713.0,0.00109874,637.545,3111.83,3110.1,0.00130117,0.00123886
1716.0,0.00137927,637.71,3115.89,3114.15,0.00130117,0.00123886
1719.0,0.00159616,637.875,3119.94,3118.2,0.00159616,0.00153385
1722.0,0.00367572,638.04,3124,3122.25,0.00296342,0.00290111
1725.0,0.00267039,638.205,3128.05,3126.3,0.00294803,0.00288572
1728.0,0.00340814,638.37,3132.1,3130.34,0.00303611,0.00297379
1731.0,0.000411603,638.535,3136.15,3134.38,0.00191736,0.00185504
1734.0,0.00272865,638.7,3140.19,3138.42,0.00230653,0.00224421
1737.0,0.00469214,638.865,3144.24,3142.46,0.00428628,0.00422396
1740.0,0.00243958,639.03,3148.28,3146.5,0.00247861,0.00241629
1743.0,0.000163272,639.195,3152.32,3150.53,0.000285344,0.00022302
1746.0,0.00295345,639.36,3156.35,3154.56,0.00280995,0.00274762
1749.0,0.00570583,639.525,3160.39,3158.59,0.00438892,0.00432659
1752.0,0.00357114,639.69,3164.42,3162.62,0.00427976,0.00421743
1755.0,0.00223888,639.855,3168.45,3166.65,0.0031209,0.00305857
1758.0,0.00206778,640.02,3172.48,3170.67,0.00206778,0.00200545
1761.0,0.00198958,640.185,3176.51,3174.69,0.001731,0.00166867
1764.0,0.00041426,640.35,3180.53,3178.71,0.00161197,0.00154964
1767.0,0.00306703,640.515,3184.55,3182.73,0.00199655,0.00193422
1770.0,0.000603274,640.68,3188.58,3186.74,0.000603274,0.000540941
1773.0,0.0,640.845,3192.59,3190.76,0.000452339,0.000390005
1776.0,0.00309252,641.01,3196.61,3194.77,0.00227237,0.00221003
1779.0,0.00303023,641.175,3200.62,3198.78,0.0027757,0.00271336
1782.0,0.00314455,641.34,3204.64,3202.78,0.00314455,0.00308221
1785.0,0.00221403,641.505,3208.65,3206.79,0.00221403,0.00215169
1788.0,0.00117476,641.67,3212.65,3210.79,0.00150975,0.00144741
1791.0,0.0012016,641.835,3216.66,3214.79,0.00158962,0.00152728
1794.0,0.00461691,642,3220.66,3218.79,0.0031354,0.00307306
1797.0,0.00391925,642.165,3224.67,3222.79,0.00396967,0.00390733
1800.0,0.00154694,642.33,3228.67,3226.78,0.0027686,0.00270626
1803.0,0.00414129,642.495,3232.66,3230.78,0.00411509,0.00405275
1806.0,0.00450422,642.66,3236.66,3234.77,0.00411509,0.00405274
1809.0,0.0,642.825,3240.65,3238.76,0.000560388,0.000498041
1812.0,0.00225195,642.99,3244.65,3242.74,0.00225195,0.0021896
1815.0,0.00370051,643.155,3248.64,3246.73,0.00370051,0.00363816
1818.0,0.001597,643.32,3252.62,3250.71,0.00235851,0.00229616
1821.0,0.00333877,643.485,3256.61,3254.69,0.00295615,0.0028938
1824.0,0.00191855,643.65,3260.59,3258.67,0.00191855,0.0018562
1827.0,0.00422413,643.815,3264.57,3262.64,0.00290086,0.00283851
1830.0,0.00210864,643.98,3268.55,3266.62,0.00231635,0.002254
1833.0,0.00149696,644.145,3272.53,3270.59,0.00231635,0.00225399
1836.0,0.00187621,644.31,3276.51,3274.56,0.00251874,0.00245638
1839.0,0.00249069,644.475,3280.48,3278.53,0.00235292,0.00229056
1842.0,0.00201743,644.64,3284.45,3282.5,0.00194624,0.00188388
1845.0,0.0033159,644.805,3288.42,3286.46,0.00314471,0.00308235
1848.0,0.00327557,644.97,3292.39,3290.42,0.00279838,0.00273602
1851.0,0.00197262,645.135,3296.35,3294.38,0.00168581,0.00162345
1854.0,0.000491306,645.3,3300.31,3298.34,0.000856908,0.000794544
1857.0,0.00210706,645.465,3304.28,3302.3,0.000848888,0.000786524
1860.0,0.0,645.63,3308.23,3306.25,0.000569162,0.000506797
1863.0,0.00253408,645.795,3312.19,3310.2,0.00187247,0.0018101
1866.0,0.00189005,645.96,3316.15,3314.15,0.00189005,0.00182768
1869.0,0.000121103,646.125,3320.1,3318.1,0.000992002,0.000929634
1872.0,0.00180371,646.29,3324.05,3322.05,0.00180371,0.00174134
1875.0,0.00224814,646.455,3328,3325.99,0.00224814,0.00218577
1878.0,0.000273386,646.619,3331.95,3329.93,0.000516584,0.000454214
1881.0,0.00202398,646.784,3335.89,3333.87,0.00202398,0.00196161
1884.0,0.00169453,646.949,3339.83,3337.81,0.00205999,0.00199762
1887.0,0.00123519,647.114,3343.78,3341.74,0.00116723,0.00110486
1890.0,0.0014238,647.279,3347.71,3345.68,0.00122402,0.00116165
1893.0,0.00124871,647.444,3351.65,3349.61,0.00157426,0.00151189
1896.0,0.00199768,647.609,3355.59,3353.54,0.00157426,0.00151189
1899.0,0.00124913,647.774,3359.52,3357.47,0.00124913,0.00118676
1902.0,0.00278632,647.939,3363.45,3361.39,0.00409628,0.00403391
1905.0,0.00416694,648.104,3367.38,3365.32,0.00360897,0.0035466
1908.0,0.00249922,648.269,3371.31,3369.24,0.002003,0.00194063
1911.0,0.00278229,648.434,3375.23,3373.16,0.00278229,0.00271992
1914.0,0.00178589,648.599,3379.15,3377.08,0.00178589,0.00172352
1917.0,0.00197535,648.764,3383.07,3380.99,0.00179506,0.00173269
1920.0,0.0037717,648.929,3386.99,3384.91,0.0037717,0.00370933
1923.0,0.00250312,649.094,3390.91,3388.82,0.00265216,0.00258979
1926.0,0.00112532,649.259,3394.83,3392.73,0.00120821,0.00114584
1929.0,0.00108391,649.424,3398.74,3396.64,0.00152704,0.00146467
1932.0,0.00371404,649.589,3402.65,3400.54,0.00359266,0.00353029
1935.0,0.00407958,649.754,3406.56,3404.45,0.00301076,0.00294839
1938.0,0.000100993,649.919,3410.47,3408.35,0.00219313,0.00213076
1941.0,0.00320258,650.084,3414.37,3412.25,0.00219313,0.00213076
1944.0,0.00318845,650.249,3418.27,3416.15,0.00265502,0.00259265
1947.0,0.00249393,650.414,3422.17,3420.04,0.00254332,0.00248095
1950.0,0.00316999,650.579,3426.07,3423.94,0.00234997,0.0022876
1953.0,0.00101749,650.744,3429.97,3427.83,0.00223543,0.00217306
1956.0,0.0053415,650.909,3433.87,3431.72,0.00340977,0.0033474
1959.0,0.00205501,651.074,3437.76,3435.61,0.00205501,0.00199264
1962.0,0.000353182,651.239,3441.65,3439.49,0.000353182,0.000290816
1965.0,0.001182,651.404,3445.54,3443.38,0.00163603,0.00157366
1968.0,0.00298213,651.569,3449.43,3447.26,0.00298213,0.00291976
1971.0,0.003804,651.734,3453.31,3451.14,0.003804,0.00374163
1974.0,0.000989692,651.899,3457.2,3455.02,0.0012849,0.00122253
1977.0,0.00184238,652.064,3461.08,3458.89,0.00184238,0.00178001
1980.0,0.00307548,652.229,3464.96,3462.77,0.00337426,0.00331189
1983.0,0.00139022,652.394,3468.83,3466.64,0.00141147,0.0013491
1986.0,0.00434005,652.559,3472.71,3470.51,0.00403041,0.00396804
1989.0,0.00350832,652.724,3476.58,3474.38,0.00350832,0.00344595
1992.0,0.00245227,652.889,3480.45,3478.25,0.00278209,0.00271972
1995.0,0.00435982,653.054,3484.32,3482.11,0.004237,0.00417463
1998.0,0.00444122,653.219,3488.19,3485.97,0.004237,0.00417463
2001.0,0.00280222,653.384,3492.06,3489.83,0.00355977,0.0034974
2004.0,0.00418555,653.549,3495.92,3493.69,0.00418555,0.00412318
2007.0,0.00587229,653.714,3499.78,3497.55,0.00587229,0.00580992
2010.0,0.00612921,653.879,3503.64,3501.4,0.00612921,0.00606684
2013.0,0.00552109,654.044,3507.5,3505.26,0.00428692,0.00422455
2016.0,0.00222308,654.209,3511.36,3509.11,0.00231782,0.00225545
2019.0,0.00372497,654.374,3515.21,3512.96,0.00372497,0.0036626
2022.0,0.00493426,654.539,3519.06,3516.8,0.00493426,0.00487189
2025.0,0.0026984,654.704,3522.91,3520.65,0.0026984,0.00263603
2028.0,0.0017477,654.869,3526.76,3524.49,0.0017477,0.00168533
2031.0,0.00375106,655.034,3530.61,3528.33,0.00375106,0.00368869
2034.0,0.00393526,655.199,3534.45,3532.17,0.00405002,0.00398765
2037.0,0.00256257,655.364,3538.29,3536.01,0.00405002,0.00398765
2040.0,0.00607208,655.529,3542.13,3539.85,0.00607208,0.00600971
2043.0,0.00372731,655.694,3545.97,3543.68,0.00372731,0.00366494
2046.0,0.00355733,655.859,3549.81,3547.51,0.0031686,0.00310623
2047.0,0.00278049,655.914,3551.09,3548.79,0.00278049,0.00271812