File: data/processed/processed_data/2024-09-03/2024-09-03_calcitecrystal_n_n_y_solid_1000_0_5.csv
Pixels #,Intensity (a.u.),Wavelength (nm),Raman shift (cm-1),Raman shift (cm-1) adjusted,Filtered Intensity (a.u.),Baselined Filtered Intensity (a.u.)
0.0,7.64026,543.337,392.223,393.994,7.63774,-0.0338261
3.0,7.63784,543.502,397.81,399.573,7.63774,-0.0338263
6.0,7.6363,543.667,403.394,405.15,7.6372,-0.0343668
9.0,7.63815,543.832,408.974,410.723,7.6372,-0.0343676
12.0,7.64074,543.997,414.551,416.293,7.63851,-0.0330587
15.0,7.63673,544.162,420.125,421.859,7.63844,-0.0331301
18.0,7.6382,544.327,425.695,427.422,7.6382,-0.0333719
21.0,7.63675,544.492,431.261,432.981,7.63675,-0.0348239
24.0,7.64014,544.657,436.825,438.537,7.63946,-0.0321162
27.0,7.63792,544.822,442.385,444.09,7.63864,-0.0329388
30.0,7.63877,544.987,447.941,449.64,7.63877,-0.0328117
33.0,7.64052,545.152,453.494,455.186,7.64052,-0.0310649
36.0,7.63751,545.317,459.044,460.728,7.63751,-0.0340784
39.0,7.64118,545.482,464.591,466.268,7.63999,-0.0316022
42.0,7.63971,545.647,470.134,471.804,7.63897,-0.0326262
45.0,7.63671,545.812,475.674,477.337,7.63724,-0.0343606
48.0,7.6412,545.977,481.21,482.866,7.64112,-0.0304853
51.0,7.64022,546.142,486.743,488.392,7.64092,-0.0306902
54.0,7.63948,546.307,492.273,493.915,7.64042,-0.0311954
57.0,7.64209,546.472,497.8,499.434,7.64042,-0.0312009
60.0,7.63923,546.637,503.323,504.95,7.63934,-0.0322867
63.0,7.63966,546.802,508.843,510.463,7.63991,-0.0317228
66.0,7.63987,546.967,514.359,515.972,7.63987,-0.0317691
69.0,7.63802,547.132,519.872,521.478,7.63851,-0.0331358
72.0,7.64208,547.297,525.382,526.981,7.64063,-0.0310227
75.0,7.63949,547.462,530.888,532.48,7.64036,-0.0312999
78.0,7.63897,547.627,536.392,537.976,7.64036,-0.0313074
81.0,7.64364,547.792,541.891,543.469,7.64226,-0.0294152
84.0,7.64167,547.957,547.388,548.958,7.64188,-0.0298033
87.0,7.6413,548.122,552.881,554.444,7.6413,-0.0303916
90.0,7.64199,548.287,558.371,559.927,7.64117,-0.0305301
93.0,7.63847,548.452,563.858,565.407,7.64014,-0.031569
96.0,7.64006,548.617,569.341,570.883,7.64006,-0.0316581
99.0,7.63898,548.782,574.821,576.356,7.63874,-0.0329876
102.0,7.63896,548.947,580.298,581.826,7.63896,-0.0327773
105.0,7.64341,549.112,585.771,587.292,7.64226,-0.0294873
108.0,7.64135,549.277,591.241,592.755,7.64135,-0.0304076
111.0,7.6396,549.442,596.708,598.215,7.6396,-0.0321681
114.0,7.64091,549.607,602.172,603.671,7.64086,-0.030919
117.0,7.63853,549.772,607.632,609.125,7.64079,-0.0310001
120.0,7.64251,549.937,613.089,614.575,7.64091,-0.0308915
123.0,7.64067,550.102,618.543,620.021,7.64067,-0.0311432
126.0,7.63946,550.267,623.993,625.465,7.63977,-0.0320551
129.0,7.64274,550.432,629.44,630.905,7.64012,-0.0317174
132.0,7.63781,550.597,634.884,636.342,7.63873,-0.0331199
135.0,7.63655,550.762,640.325,641.776,7.63777,-0.0340927
138.0,7.63841,550.927,645.762,647.206,7.63841,-0.0334658
141.0,7.63966,551.092,651.197,652.633,7.63966,-0.0322293
144.0,7.64077,551.257,656.627,658.057,7.64045,-0.031453
147.0,7.63923,551.422,662.055,663.478,7.64032,-0.031597
150.0,7.64265,551.587,667.48,668.895,7.64039,-0.0315413
153.0,7.63919,551.752,672.901,674.309,7.63919,-0.0327558
156.0,7.63722,551.917,678.319,679.72,7.63832,-0.0336407
159.0,7.63771,552.082,683.733,685.128,7.63771,-0.0342659
162.0,7.63903,552.247,689.145,690.533,7.63903,-0.0329613
165.0,7.64227,552.412,694.553,695.934,7.64123,-0.0307771
168.0,7.64094,552.577,699.958,701.332,7.64123,-0.0307931
171.0,7.64045,552.742,705.36,706.727,7.64202,-0.0300194
174.0,7.6423,552.907,710.758,712.118,7.64211,-0.029946
177.0,7.64137,553.072,716.154,717.507,7.64154,-0.0305329
180.0,7.64349,553.237,721.546,722.892,7.64154,-0.03055
183.0,7.63767,553.402,726.935,728.274,7.6391,-0.0330074
186.0,7.64133,553.567,732.32,733.652,7.64133,-0.0307951
189.0,7.64269,553.732,737.703,739.028,7.64269,-0.0294531
192.0,7.6454,553.897,743.082,744.4,7.6433,-0.0288613
195.0,7.64198,554.062,748.458,749.769,7.64257,-0.0296098
198.0,7.64455,554.227,753.831,755.135,7.64285,-0.0293486
201.0,7.64118,554.392,759.201,760.498,7.64196,-0.0302576
204.0,7.6444,554.557,764.567,765.858,7.64317,-0.0290669
207.0,7.645,554.722,769.93,771.214,7.645,-0.0272565
210.0,7.64437,554.887,775.29,776.567,7.64577,-0.0265063
213.0,7.64704,555.052,780.647,781.917,7.64644,-0.0258563
216.0,7.65053,555.217,786.001,787.264,7.64986,-0.0224566
219.0,7.6486,555.382,791.352,792.608,7.6486,-0.0237371
222.0,7.64728,555.546,796.699,797.948,7.64728,-0.0250777
225.0,7.64959,555.711,802.043,803.285,7.64947,-0.0229087
228.0,7.65161,555.876,807.384,808.62,7.6516,-0.0207998
231.0,7.65034,556.041,812.722,813.951,7.6516,-0.0208211
234.0,7.65273,556.206,818.057,819.278,7.65171,-0.0207326
237.0,7.65195,556.371,823.388,824.603,7.65307,-0.0193943
240.0,7.65611,556.536,828.716,829.924,7.65611,-0.0163761
243.0,7.65647,556.701,834.042,835.243,7.65713,-0.0153781
246.0,7.65832,556.866,839.364,840.558,7.65832,-0.0142103
249.0,7.65762,557.031,844.682,845.87,7.6581,-0.0144526
252.0,7.65878,557.196,849.998,851.179,7.65929,-0.013285
255.0,7.66394,557.361,855.311,856.485,7.66246,-0.0101375
258.0,7.66283,557.526,860.62,861.787,7.66293,-0.00969009
261.0,7.66623,557.691,865.927,867.087,7.66454,-0.00810278
264.0,7.6636,557.856,871.23,872.383,7.66437,-0.00829554
267.0,7.6645,558.021,876.53,877.676,7.6645,-0.00818837
270.0,7.66532,558.186,881.827,882.966,7.66513,-0.00758128
273.0,7.66424,558.351,887.12,888.253,7.66358,-0.00915425
276.0,7.66433,558.516,892.411,893.537,7.66358,-0.0091773
279.0,7.66741,558.681,897.698,898.818,7.66741,-0.00537043
282.0,7.66722,558.846,902.983,904.095,7.66784,-0.00496362
285.0,7.66814,559.011,908.264,909.37,7.66814,-0.00468685
288.0,7.66343,559.176,913.542,914.641,7.66457,-0.00828013
291.0,7.66844,559.341,918.817,919.909,7.66844,-0.00443347
294.0,7.67063,559.506,924.089,925.174,7.66987,-0.00302687
297.0,7.66895,559.671,929.358,930.436,7.66895,-0.00397029
300.0,7.67037,559.836,934.624,935.695,7.6708,-0.00214375
303.0,7.66929,560.001,939.886,940.951,7.67027,-0.00269723
306.0,7.67046,560.166,945.146,946.204,7.67027,-0.00272073
309.0,7.66943,560.331,950.402,951.454,7.66949,-0.00352426
312.0,7.67012,560.496,955.656,956.7,7.66917,-0.00386782
315.0,7.66687,560.661,960.906,961.944,7.66755,-0.00551142
318.0,7.6674,560.826,966.153,967.184,7.6674,-0.00568507
321.0,7.66866,560.991,971.397,972.421,7.66866,-0.00444876
324.0,7.66859,561.156,976.638,977.655,7.66916,-0.0039725
327.0,7.66924,561.321,981.876,982.887,7.66924,-0.00391628
330.0,7.66696,561.486,987.111,988.115,7.66781,-0.00537009
333.0,7.6673,561.651,992.342,993.34,7.66781,-0.00539395
336.0,7.67301,561.816,997.571,998.562,7.6721,-0.00112786
339.0,7.67208,561.981,1002.8,1003.78,7.67208,-0.00117177
342.0,7.67486,562.146,1008.02,1009,7.67486,0.0015843
345.0,7.67245,562.311,1013.24,1014.21,7.67317,-0.000129626
348.0,7.67432,562.476,1018.45,1019.42,7.67432,0.000996451
351.0,7.67788,562.641,1023.67,1024.63,7.67613,0.00278254
354.0,7.67393,562.806,1028.88,1029.83,7.67484,0.00146866
357.0,7.67677,562.971,1034.09,1035.03,7.67587,0.00247478
360.0,7.67599,563.136,1039.29,1040.23,7.67587,0.00245094
363.0,7.676,563.301,1044.49,1045.42,7.675,0.00155711
366.0,7.67663,563.466,1049.69,1050.61,7.6769,0.00343331
369.0,7.68199,563.631,1054.88,1055.8,7.68196,0.00846954
372.0,7.68285,563.796,1060.08,1060.99,7.68285,0.00933584
375.0,7.68693,563.961,1065.27,1066.17,7.68693,0.0133922
378.0,7.72291,564.126,1070.45,1071.35,7.72291,0.0493488
381.0,7.88547,564.291,1075.63,1076.52,7.88547,0.211885
384.0,7.9866,564.456,1080.81,1081.7,7.98442,0.310812
387.0,7.97492,564.621,1085.99,1086.87,7.97492,0.301289
390.0,7.88684,564.786,1091.16,1092.03,7.88684,0.213185
393.0,7.72685,564.951,1096.34,1097.2,7.72685,0.0531718
396.0,7.68684,565.116,1101.5,1102.36,7.68684,0.0131384
399.0,7.68045,565.281,1106.67,1107.52,7.68161,0.00788525
402.0,7.68335,565.446,1111.83,1112.67,7.68146,0.00771212
405.0,7.67973,565.611,1116.99,1117.82,7.68022,0.00644907
408.0,7.6808,565.776,1122.14,1122.97,7.67946,0.00566608
411.0,7.68017,565.941,1127.3,1128.12,7.68017,0.00635315
414.0,7.67908,566.106,1132.45,1133.26,7.67908,0.00524028
417.0,7.67821,566.271,1137.59,1138.4,7.67821,0.00434745
420.0,7.68025,566.436,1142.74,1143.54,7.67995,0.00606467
423.0,7.67773,566.601,1147.88,1148.67,7.67924,0.00533193
426.0,7.67978,566.766,1153.02,1153.81,7.67978,0.00584925
429.0,7.68358,566.931,1158.15,1158.93,7.683,0.00904662
432.0,7.68302,567.096,1163.28,1164.06,7.683,0.00902407
435.0,7.68338,567.261,1168.41,1169.18,7.68298,0.0089816
438.0,7.68292,567.426,1173.54,1174.3,7.68292,0.00889922
441.0,7.68132,567.591,1178.66,1179.42,7.68338,0.00933691
444.0,7.68331,567.756,1183.78,1184.53,7.68338,0.00931468
447.0,7.68872,567.921,1188.9,1189.64,7.68536,0.0112725
450.0,7.6835,568.086,1194.01,1194.75,7.68489,0.0107805
453.0,7.68505,568.251,1199.12,1199.85,7.68489,0.0107586
456.0,7.68978,568.416,1204.23,1204.95,7.6867,0.0125467
459.0,7.68759,568.58,1209.33,1210.05,7.68786,0.013685
462.0,7.69078,568.745,1214.44,1215.15,7.68992,0.0157234
465.0,7.68302,568.91,1219.53,1220.24,7.68554,0.011322
468.0,7.68681,569.075,1224.63,1225.33,7.68681,0.0125706
471.0,7.68924,569.24,1229.72,1230.42,7.68876,0.0144994
474.0,7.68833,569.405,1234.81,1235.5,7.68783,0.0135483
477.0,7.68633,569.57,1239.9,1240.58,7.68783,0.0135273
480.0,7.68905,569.735,1244.99,1245.66,7.68781,0.0134864
483.0,7.6878,569.9,1250.07,1250.73,7.68781,0.0134656
486.0,7.68828,570.065,1255.14,1255.8,7.68828,0.013915
489.0,7.68748,570.23,1260.22,1260.87,7.68748,0.0130945
492.0,7.68681,570.395,1265.29,1265.94,7.68681,0.0124041
495.0,7.68434,570.56,1270.36,1271,7.68626,0.0118338
498.0,7.6886,570.725,1275.43,1276.06,7.6886,0.0141537
501.0,7.69067,570.89,1280.49,1281.12,7.69036,0.0158936
504.0,7.68768,571.055,1285.55,1286.17,7.6893,0.0148137
507.0,7.6905,571.22,1290.61,1291.22,7.68965,0.0151439
510.0,7.68807,571.385,1295.67,1296.27,7.68825,0.0137243
513.0,7.68876,571.55,1300.72,1301.32,7.68876,0.0142148
516.0,7.68989,571.715,1305.77,1306.36,7.69136,0.0167954
519.0,7.69319,571.88,1310.81,1311.4,7.69319,0.0186062
522.0,7.69606,572.045,1315.86,1316.44,7.69501,0.0204071
525.0,7.69322,572.21,1320.9,1321.47,7.69322,0.0185982
528.0,7.69416,572.375,1325.94,1326.5,7.69278,0.0181395
531.0,7.69364,572.54,1330.97,1331.53,7.69344,0.018781
534.0,7.69392,572.705,1336,1336.56,7.69392,0.0192426
537.0,7.69388,572.87,1341.03,1341.58,7.6943,0.0196044
540.0,7.69573,573.035,1346.06,1346.6,7.69573,0.0210164
543.0,7.69914,573.2,1351.08,1351.61,7.69914,0.0244086
546.0,7.70087,573.365,1356.1,1356.63,7.70087,0.026121
549.0,7.69454,573.53,1361.12,1361.64,7.69783,0.0230636
552.0,7.69838,573.695,1366.13,1366.65,7.69783,0.0230464
555.0,7.69508,573.86,1371.14,1371.65,7.69658,0.0217794
558.0,7.69834,574.025,1376.15,1376.65,7.69834,0.0235227
561.0,7.70054,574.19,1381.16,1381.65,7.69996,0.0251261
564.0,7.69954,574.355,1386.16,1386.65,7.69996,0.0251097
567.0,7.6995,574.52,1391.16,1391.64,7.69965,0.0247836
570.0,7.70013,574.685,1396.16,1396.63,7.70013,0.0252477
573.0,7.70538,574.85,1401.15,1401.62,7.70522,0.0303221
576.0,7.70298,575.015,1406.14,1406.61,7.70335,0.0284367
579.0,7.70333,575.18,1411.13,1411.59,7.70333,0.0284015
582.0,7.70155,575.345,1416.12,1416.57,7.70305,0.0281066
585.0,7.70499,575.51,1421.1,1421.54,7.70499,0.030032
588.0,7.70784,575.675,1426.08,1426.52,7.70784,0.0328676
591.0,7.70943,575.84,1431.06,1431.49,7.70837,0.0333835
594.0,7.70615,576.005,1436.03,1436.46,7.70713,0.0321298
597.0,7.70863,576.17,1441,1441.42,7.70722,0.0322063
600.0,7.70831,576.335,1445.97,1446.38,7.70722,0.0321931
603.0,7.70333,576.5,1450.94,1451.34,7.70528,0.0302402
606.0,7.70803,576.665,1455.9,1456.3,7.70643,0.0313776
609.0,7.70563,576.83,1460.86,1461.25,7.70643,0.0313652
612.0,7.70647,576.995,1465.82,1466.2,7.70684,0.0317632
615.0,7.70704,577.16,1470.77,1471.15,7.70704,0.0319514
618.0,7.71081,577.325,1475.72,1476.1,7.70812,0.0330199
621.0,7.70772,577.49,1480.67,1481.04,7.70868,0.0335687
624.0,7.71087,577.655,1485.62,1485.98,7.70985,0.0347278
627.0,7.70893,577.82,1490.56,1490.91,7.7102,0.0350673
630.0,7.7142,577.985,1495.5,1495.85,7.7126,0.037457
633.0,7.71084,578.15,1500.44,1500.78,7.71205,0.0368968
636.0,7.71144,578.315,1505.37,1505.71,7.71144,0.0362767
639.0,7.71053,578.48,1510.3,1510.63,7.71128,0.0361069
642.0,7.71386,578.645,1515.23,1515.55,7.71227,0.0370873
645.0,7.71299,578.81,1520.16,1520.47,7.71299,0.0377977
648.0,7.71398,578.975,1525.08,1525.39,7.71398,0.0387782
651.0,7.71524,579.14,1530,1530.31,7.71524,0.0400287
654.0,7.71403,579.305,1534.92,1535.22,7.71579,0.0405692
657.0,7.71617,579.47,1539.83,1540.13,7.7148,0.0395697
660.0,7.71598,579.635,1544.75,1545.03,7.71534,0.0401002
663.0,7.71651,579.8,1549.65,1549.93,7.71695,0.0417007
666.0,7.7149,579.965,1554.56,1554.83,7.71594,0.0406812
669.0,7.71777,580.13,1559.47,1559.73,7.71777,0.0425017
672.0,7.71789,580.295,1564.37,1564.63,7.71789,0.0426122
675.0,7.71691,580.46,1569.26,1569.52,7.71789,0.0426026
678.0,7.71803,580.625,1574.16,1574.41,7.71832,0.0430231
681.0,7.71975,580.79,1579.05,1579.29,7.71908,0.0437736
684.0,7.72109,580.955,1583.94,1584.18,7.71968,0.0443641
687.0,7.71689,581.12,1588.83,1589.06,7.71937,0.0440446
690.0,7.72148,581.285,1593.71,1593.94,7.72006,0.0447251
693.0,7.71898,581.45,1598.59,1598.81,7.71961,0.0442656
696.0,7.72083,581.614,1603.47,1603.68,7.72081,0.0454561
699.0,7.72144,581.779,1608.35,1608.55,7.72081,0.0454466
702.0,7.72148,581.944,1613.22,1613.42,7.72185,0.0464771
705.0,7.72189,582.109,1618.09,1618.28,7.72229,0.0469076
708.0,7.72193,582.274,1622.96,1623.15,7.72193,0.046538
711.0,7.72337,582.439,1627.83,1628,7.72187,0.0464685
714.0,7.72043,582.604,1632.69,1632.86,7.72247,0.047059
717.0,7.72409,582.769,1637.55,1637.71,7.72409,0.0486695
720.0,7.72478,582.934,1642.4,1642.56,7.72386,0.04843
723.0,7.72401,583.099,1647.26,1647.41,7.72304,0.0476005
726.0,7.724,583.264,1652.11,1652.26,7.72352,0.048071
729.0,7.72227,583.429,1656.96,1657.1,7.72307,0.0476115
732.0,7.72338,583.594,1661.8,1661.94,7.72352,0.048052
735.0,7.72669,583.759,1666.65,1666.77,7.72669,0.0512125
738.0,7.72639,583.924,1671.49,1671.61,7.72639,0.050903
741.0,7.72602,584.089,1676.32,1676.44,7.72624,0.0507434
744.0,7.72835,584.254,1681.16,1681.27,7.72835,0.0528439
747.0,7.7289,584.419,1685.99,1686.09,7.7289,0.0533844
750.0,7.72663,584.584,1690.82,1690.92,7.72936,0.0538349
753.0,7.73152,584.749,1695.65,1695.74,7.73009,0.0545554
756.0,7.73111,584.914,1700.47,1700.55,7.73068,0.0551359
759.0,7.73042,585.079,1705.29,1705.37,7.73042,0.0548664
762.0,7.72692,585.244,1710.11,1710.18,7.72772,0.0521569
765.0,7.72954,585.409,1714.92,1714.99,7.72954,0.0539674
768.0,7.73348,585.574,1719.74,1719.8,7.73348,0.0578979
771.0,7.73238,585.739,1724.55,1724.6,7.73304,0.0574484
774.0,7.73128,585.904,1729.35,1729.4,7.73304,0.0574388
777.0,7.73422,586.069,1734.16,1734.2,7.73397,0.0583593
780.0,7.73402,586.234,1738.96,1739,7.73535,0.0597298
783.0,7.73819,586.399,1743.76,1743.79,7.73819,0.0625603
786.0,7.74195,586.564,1748.56,1748.58,7.74195,0.0663108
789.0,7.74576,586.729,1753.35,1753.37,7.74359,0.0679413
792.0,7.73939,586.894,1758.14,1758.15,7.73939,0.0637318
795.0,7.73682,587.059,1762.93,1762.94,7.73682,0.0611523
798.0,7.73716,587.224,1767.72,1767.72,7.73701,0.0613328
801.0,7.73688,587.389,1772.5,1772.49,7.73677,0.0610833
804.0,7.73751,587.554,1777.28,1777.27,7.7375,0.0618038
807.0,7.73517,587.719,1782.06,1782.04,7.73517,0.0594642
810.0,7.73546,587.884,1786.83,1786.81,7.73546,0.0597447
813.0,7.73789,588.049,1791.61,1791.57,7.73774,0.0620152
816.0,7.73812,588.214,1796.38,1796.34,7.73812,0.0623857
819.0,7.73765,588.379,1801.14,1801.1,7.73859,0.0628462
822.0,7.74129,588.544,1805.91,1805.86,7.74029,0.0645367
825.0,7.73774,588.709,1810.67,1810.61,7.74029,0.0645272
828.0,7.74205,588.874,1815.43,1815.37,7.74184,0.0660677
831.0,7.74018,589.039,1820.19,1820.12,7.74018,0.0643982
834.0,7.73803,589.204,1824.94,1824.86,7.73803,0.0622387
837.0,7.73733,589.369,1829.69,1829.61,7.73772,0.0619192
840.0,7.73978,589.534,1834.44,1834.35,7.73946,0.0636496
843.0,7.74011,589.699,1839.18,1839.09,7.74011,0.0642901
846.0,7.74658,589.864,1843.93,1843.83,7.7446,0.0687706
849.0,7.74313,590.029,1848.67,1848.56,7.74508,0.0692411
852.0,7.74292,590.194,1853.41,1853.29,7.74485,0.0690016
855.0,7.74421,590.359,1858.14,1858.02,7.74483,0.0689721
858.0,7.74619,590.524,1862.87,1862.75,7.74529,0.0694226
861.0,7.74781,590.689,1867.6,1867.47,7.74781,0.0719331
864.0,7.74902,590.854,1872.33,1872.2,7.74902,0.0731336
867.0,7.74639,591.019,1877.06,1876.91,7.74731,0.0714141
870.0,7.74936,591.184,1881.78,1881.63,7.74936,0.0734546
873.0,7.7447,591.349,1886.5,1886.34,7.74697,0.071055
876.0,7.74623,591.514,1891.21,1891.05,7.74623,0.0703055
879.0,7.74679,591.679,1895.93,1895.76,7.74679,0.070856
882.0,7.74894,591.844,1900.64,1900.47,7.74794,0.0719965
885.0,7.75125,592.009,1905.35,1905.17,7.75057,0.074617
888.0,7.75037,592.174,1910.05,1909.87,7.75111,0.0751475
891.0,7.7508,592.339,1914.76,1914.57,7.75147,0.075498
894.0,7.75098,592.504,1919.46,1919.26,7.75142,0.0754385
897.0,7.75289,592.669,1924.16,1923.96,7.7525,0.076509
900.0,7.75109,592.834,1928.85,1928.64,7.75109,0.0750895
903.0,7.74888,592.999,1933.55,1933.33,7.74888,0.07287
906.0,7.75258,593.164,1938.24,1938.02,7.75221,0.0761905
909.0,7.75338,593.329,1942.93,1942.7,7.75333,0.0773009
912.0,7.75227,593.494,1947.61,1947.38,7.75187,0.0758314
915.0,7.75111,593.659,1952.29,1952.05,7.75139,0.0753419
918.0,7.75437,593.824,1956.97,1956.73,7.75421,0.0781524
921.0,7.75525,593.989,1961.65,1961.4,7.75421,0.0781429
924.0,7.75378,594.154,1966.33,1966.07,7.75378,0.0777034
927.0,7.75669,594.319,1971,1970.73,7.75503,0.0789439
930.0,7.75555,594.484,1975.67,1975.4,7.7551,0.0790044
933.0,7.7539,594.648,1980.33,1980.06,7.75456,0.0784549
936.0,7.75235,594.813,1985,1984.72,7.75342,0.0773054
939.0,7.75805,594.978,1989.66,1989.37,7.75779,0.0816659
942.0,7.75481,595.143,1994.32,1994.03,7.75481,0.0786763
945.0,7.75189,595.308,1998.98,1998.68,7.75228,0.0761368
948.0,7.75443,595.473,2003.63,2003.33,7.75443,0.0782773
951.0,7.75644,595.638,2008.28,2007.97,7.75644,0.0802778
954.0,7.75627,595.803,2012.93,2012.62,7.75706,0.0808883
957.0,7.75294,595.968,2017.58,2017.26,7.75403,0.0778488
960.0,7.75759,596.133,2022.22,2021.89,7.75672,0.0805293
963.0,7.75856,596.298,2026.86,2026.53,7.75805,0.0818498
966.0,7.75733,596.463,2031.5,2031.16,7.75805,0.0818403
969.0,7.75875,596.628,2036.14,2035.79,7.75799,0.0817708
972.0,7.76011,596.793,2040.77,2040.42,7.75799,0.0817613
975.0,7.7588,596.958,2045.4,2045.05,7.7588,0.0825617
978.0,7.75971,597.123,2050.03,2049.67,7.75943,0.0831822
981.0,7.75554,597.288,2054.66,2054.29,7.75821,0.0819527
984.0,7.76099,597.453,2059.28,2058.91,7.75986,0.0835932
987.0,7.75963,597.618,2063.9,2063.52,7.75963,0.0833537
990.0,7.75756,597.783,2068.52,2068.13,7.75756,0.0812742
993.0,7.75934,597.948,2073.14,2072.74,7.75934,0.0830447
996.0,7.76195,598.113,2077.75,2077.35,7.76083,0.0845252
999.0,7.75805,598.278,2082.36,2081.95,7.75872,0.0824057
1002.0,7.76173,598.443,2086.97,2086.56,7.76173,0.0854062
1005.0,7.76051,598.608,2091.57,2091.16,7.76037,0.0840367
1008.0,7.75817,598.773,2096.18,2095.75,7.75936,0.0830171
1011.0,7.76122,598.938,2100.78,2100.35,7.76122,0.0848676
1014.0,7.7588,599.103,2105.38,2104.94,7.7588,0.0824381
1017.0,7.75948,599.268,2109.97,2109.53,7.75955,0.0831786
1020.0,7.76238,599.433,2114.56,2114.12,7.76238,0.0859991
1023.0,7.76367,599.598,2119.15,2118.7,7.76237,0.0859796
1026.0,7.75982,599.763,2123.74,2123.28,7.76205,0.0856501
1029.0,7.76262,599.928,2128.33,2127.86,7.76324,0.0868306
1032.0,7.76522,600.093,2132.91,2132.44,7.76512,0.0887011
1035.0,7.76294,600.258,2137.49,2137.01,7.76294,0.0865116
1038.0,7.76125,600.423,2142.07,2141.59,7.7614,0.0849621
1041.0,7.76133,600.588,2146.64,2146.15,7.76208,0.0856325
1044.0,7.76292,600.753,2151.22,2150.72,7.7633,0.086843
1047.0,7.76456,600.918,2155.79,2155.29,7.76456,0.0880935
1050.0,7.76325,601.083,2160.35,2159.85,7.76515,0.088674
1053.0,7.76468,601.248,2164.92,2164.41,7.76503,0.0885445
1056.0,7.76513,601.413,2169.48,2168.96,7.76513,0.088635
1059.0,7.7625,601.578,2174.04,2173.52,7.7625,0.0859955
1062.0,7.76364,601.743,2178.6,2178.07,7.76364,0.087126
1065.0,7.76624,601.908,2183.16,2182.62,7.7656,0.0890765
1068.0,7.76511,602.073,2187.71,2187.17,7.76563,0.089097
1071.0,7.76653,602.238,2192.26,2191.71,7.76609,0.0895475
1074.0,7.76808,602.403,2196.81,2196.25,7.76609,0.0895379
1077.0,7.75988,602.568,2201.35,2200.79,7.7653,0.0887384
1080.0,7.76786,602.733,2205.89,2205.33,7.76675,0.0901789
1083.0,7.76674,602.898,2210.43,2209.86,7.76674,0.0901594
1086.0,7.766,603.063,2214.97,2214.4,7.766,0.0894099
1089.0,7.76585,603.228,2219.51,2218.92,7.76629,0.0896904
1092.0,7.76565,603.393,2224.04,2223.45,7.76629,0.0896809
1095.0,7.76648,603.558,2228.57,2227.98,7.7673,0.0906814
1098.0,7.76735,603.723,2233.1,2232.5,7.76778,0.0911519
1101.0,7.76916,603.888,2237.62,2237.02,7.7685,0.0918624
1104.0,7.76511,604.053,2242.15,2241.54,7.76619,0.0895429
1107.0,7.76512,604.218,2246.67,2246.05,7.7657,0.0890433
1110.0,7.76671,604.383,2251.19,2250.56,7.76706,0.0903938
1113.0,7.77163,604.548,2255.7,2255.07,7.76837,0.0916943
1116.0,7.7681,604.713,2260.21,2259.58,7.76822,0.0915348
1119.0,7.76756,604.878,2264.72,2264.08,7.76802,0.0913253
1122.0,7.76831,605.043,2269.23,2268.59,7.76831,0.0916058
1125.0,7.76851,605.208,2273.74,2273.09,7.76851,0.0917963
1128.0,7.76701,605.373,2278.24,2277.58,7.76789,0.0911668
1131.0,7.76826,605.538,2282.74,2282.08,7.76826,0.0915273
1134.0,7.77069,605.703,2287.24,2286.57,7.76891,0.0921678
1137.0,7.76805,605.868,2291.74,2291.06,7.76805,0.0912983
1140.0,7.77006,606.033,2296.23,2295.55,7.77023,0.0934687
1143.0,7.77133,606.198,2300.72,2300.03,7.77133,0.0945592
1146.0,7.76921,606.363,2305.21,2304.52,7.76921,0.0924297
1149.0,7.76935,606.528,2309.7,2309,7.76935,0.0925602
1152.0,7.77043,606.693,2314.18,2313.47,7.77012,0.0933207
1155.0,7.76699,606.858,2318.66,2317.95,7.76735,0.0905412
1158.0,7.77045,607.023,2323.14,2322.42,7.77045,0.0936317
1161.0,7.77154,607.188,2327.62,2326.89,7.77146,0.0946322
1164.0,7.76854,607.353,2332.09,2331.36,7.76917,0.0923327
1167.0,7.77198,607.518,2336.56,2335.83,7.77011,0.0932632
1170.0,7.77006,607.682,2341.03,2340.29,7.77048,0.0936237
1173.0,7.76958,607.847,2345.5,2344.75,7.76958,0.0927141
1176.0,7.77045,608.012,2349.96,2349.21,7.77045,0.0935746
1179.0,7.77214,608.177,2354.42,2353.67,7.77106,0.0941751
1182.0,7.76934,608.342,2358.88,2358.12,7.76966,0.0927656
1185.0,7.76744,608.507,2363.34,2362.57,7.7692,0.0922961
1188.0,7.77079,608.672,2367.79,2367.02,7.77019,0.0932766
1191.0,7.76912,608.837,2372.25,2371.47,7.77014,0.0932171
1194.0,7.76749,609.002,2376.7,2375.91,7.76865,0.0917176
1197.0,7.77336,609.167,2381.14,2380.35,7.77167,0.0947281
1200.0,7.77128,609.332,2385.59,2384.79,7.7712,0.0942486
1203.0,7.76631,609.497,2390.03,2389.23,7.76875,0.0917891
1206.0,7.76792,609.662,2394.47,2393.66,7.76961,0.0926395
1209.0,7.7726,609.827,2398.91,2398.09,7.7726,0.09562
1212.0,7.77074,609.992,2403.34,2402.52,7.77122,0.0942305
1215.0,7.76841,610.157,2407.78,2406.95,7.76841,0.091411
1218.0,7.76909,610.322,2412.21,2411.38,7.76909,0.0920815
1221.0,7.77108,610.487,2416.63,2415.8,7.77066,0.093642
1224.0,7.76879,610.652,2421.06,2420.22,7.7692,0.0921725
1227.0,7.76678,610.817,2425.48,2424.64,7.76902,0.091983
1230.0,7.77014,610.982,2429.9,2429.05,7.76927,0.0922235
1233.0,7.77002,611.147,2434.32,2433.46,7.76973,0.092674
1236.0,7.77017,611.312,2438.74,2437.87,7.76973,0.0926645
1239.0,7.77118,611.477,2443.15,2442.28,7.76973,0.0926549
1242.0,7.76889,611.642,2447.56,2446.69,7.76889,0.0918054
1245.0,7.76598,611.807,2451.97,2451.09,7.76804,0.0909459
1248.0,7.76644,611.972,2456.38,2455.49,7.7673,0.0901964
1251.0,7.77122,612.137,2460.78,2459.89,7.76922,0.0921069
1254.0,7.76987,612.302,2465.19,2464.29,7.76987,0.0927474
1257.0,7.76536,612.467,2469.59,2468.68,7.76604,0.0889079
1260.0,7.76999,612.632,2473.98,2473.07,7.76898,0.0918384
1263.0,7.76692,612.797,2478.38,2477.46,7.76898,0.0918289
1266.0,7.76932,612.962,2482.77,2481.85,7.76839,0.0912294
1269.0,7.76899,613.127,2487.16,2486.23,7.76811,0.0909399
1272.0,7.76808,613.292,2491.55,2490.61,7.76807,0.0908903
1275.0,7.76719,613.457,2495.93,2494.99,7.76737,0.0901808
1278.0,7.76672,613.622,2500.32,2499.37,7.76739,0.0901913
1281.0,7.76628,613.787,2504.7,2503.75,7.76628,0.0890718
1284.0,7.76651,613.952,2509.07,2508.12,7.76651,0.0892923
1287.0,7.76551,614.117,2513.45,2512.49,7.76564,0.0884128
1290.0,7.76431,614.282,2517.82,2516.86,7.76431,0.0870733
1293.0,7.7688,614.447,2522.19,2521.22,7.7676,0.0903538
1296.0,7.76626,614.612,2526.56,2525.59,7.76626,0.0890043
1299.0,7.76516,614.777,2530.93,2529.95,7.76516,0.0878948
1302.0,7.76661,614.942,2535.29,2534.3,7.76737,0.0900953
1305.0,7.76944,615.107,2539.66,2538.66,7.76737,0.0900858
1308.0,7.76573,615.272,2544.02,2543.01,7.76524,0.0879462
1311.0,7.76243,615.437,2548.37,2547.37,7.76247,0.0851667
1314.0,7.76466,615.602,2552.73,2551.72,7.76398,0.0866672
1317.0,7.76487,615.767,2557.08,2556.06,7.76473,0.0874077
1320.0,7.76321,615.932,2561.43,2560.41,7.76454,0.0872082
1323.0,7.76356,616.097,2565.78,2564.75,7.76356,0.0862187
1326.0,7.76287,616.262,2570.12,2569.09,7.76246,0.0851092
1329.0,7.75996,616.427,2574.47,2573.43,7.7611,0.0837397
1332.0,7.75991,616.592,2578.81,2577.76,7.75991,0.0825402
1335.0,7.76146,616.757,2583.15,2582.09,7.76146,0.0840807
1338.0,7.76369,616.922,2587.48,2586.42,7.76318,0.0857912
1341.0,7.76279,617.087,2591.82,2590.75,7.76241,0.0850116
1344.0,7.76211,617.252,2596.15,2595.08,7.76068,0.0832721
1347.0,7.75953,617.417,2600.48,2599.4,7.76012,0.0827026
1350.0,7.76354,617.582,2604.8,2603.72,7.76162,0.0841931
1353.0,7.76117,617.747,2609.13,2608.04,7.76117,0.0837336
1356.0,7.75907,617.912,2613.45,2612.36,7.75907,0.0816241
1359.0,7.75677,618.077,2617.77,2616.67,7.75677,0.0793146
1362.0,7.75901,618.242,2622.09,2620.99,7.7572,0.0797351
1365.0,7.7571,618.407,2626.4,2625.3,7.7571,0.0796256
1368.0,7.7543,618.572,2630.72,2629.6,7.7557,0.0782161
1371.0,7.75798,618.737,2635.03,2633.91,7.7572,0.0797066
1374.0,7.75541,618.902,2639.34,2638.21,7.7572,0.079697
1377.0,7.75849,619.067,2643.64,2642.51,7.75806,0.0805475
1380.0,7.7545,619.232,2647.95,2646.81,7.75613,0.078608
1383.0,7.757,619.397,2652.25,2651.11,7.757,0.0794685
1386.0,7.75794,619.562,2656.55,2655.4,7.75794,0.080399
1389.0,7.75708,619.727,2660.84,2659.69,7.75708,0.0795295
1392.0,7.75109,619.892,2665.14,2663.98,7.75298,0.07542
1395.0,7.75774,620.057,2669.43,2668.27,7.75706,0.0794905
1398.0,7.75384,620.222,2673.72,2672.55,7.75415,0.076571
1401.0,7.75435,620.387,2678.01,2676.84,7.75415,0.0765615
1404.0,7.75268,620.551,2682.29,2681.12,7.75215,0.074552
1407.0,7.74997,620.716,2686.58,2685.39,7.75133,0.0737224
1410.0,7.75386,620.881,2690.86,2689.67,7.7525,0.0748829
1413.0,7.75459,621.046,2695.14,2693.94,7.75328,0.0756534
1416.0,7.75108,621.211,2699.41,2698.21,7.75108,0.0734439
1419.0,7.74882,621.376,2703.69,2702.48,7.7491,0.0714544
1422.0,7.75084,621.541,2707.96,2706.75,7.75084,0.0731849
1425.0,7.7508,621.706,2712.23,2711.01,7.7508,0.0731354
1428.0,7.75204,621.871,2716.5,2715.27,7.75202,0.0743459
1431.0,7.75268,622.036,2720.76,2719.53,7.75207,0.0743864
1434.0,7.74643,622.201,2725.03,2723.79,7.7467,0.0690069
1437.0,7.74947,622.366,2729.29,2728.05,7.74947,0.0717674
1440.0,7.75158,622.531,2733.54,2732.3,7.75088,0.0731678
1443.0,7.74922,622.696,2737.8,2736.55,7.75017,0.0724483
1446.0,7.74981,622.861,2742.05,2740.8,7.74981,0.0720788
1449.0,7.75199,623.026,2746.31,2745.04,7.75012,0.0723793
1452.0,7.74586,623.191,2750.56,2749.29,7.74649,0.0687398
1455.0,7.74745,623.356,2754.8,2753.53,7.74732,0.0695603
1458.0,7.74548,623.521,2759.05,2757.77,7.74732,0.0695508
1461.0,7.7476,623.686,2763.29,2762.01,7.7476,0.0698213
1464.0,7.74697,623.851,2767.53,2766.24,7.74697,0.0691818
1467.0,7.74334,624.016,2771.77,2770.47,7.74506,0.0672623
1470.0,7.74517,624.181,2776,2774.7,7.7444,0.0665928
1473.0,7.74542,624.346,2780.24,2778.93,7.74513,0.0673132
1476.0,7.74504,624.511,2784.47,2783.16,7.74552,0.0676937
1479.0,7.74368,624.676,2788.7,2787.38,7.74368,0.0658442
1482.0,7.74234,624.841,2792.93,2791.6,7.74273,0.0648847
1485.0,7.74273,625.006,2797.15,2795.82,7.74273,0.0648752
1488.0,7.74293,625.171,2801.37,2800.04,7.7427,0.0648357
1491.0,7.74402,625.336,2805.59,2804.25,7.74336,0.0654862
1494.0,7.74145,625.501,2809.81,2808.47,7.74238,0.0644967
1497.0,7.74139,625.666,2814.03,2812.68,7.7423,0.0644072
1500.0,7.73987,625.831,2818.24,2816.89,7.73987,0.0619677
1503.0,7.74113,625.996,2822.45,2821.09,7.74113,0.0632182
1506.0,7.74184,626.161,2826.66,2825.3,7.74184,0.0639186
1509.0,7.73993,626.326,2830.87,2829.5,7.74064,0.0627091
1512.0,7.74392,626.491,2835.07,2833.7,7.7423,0.0643596
1515.0,7.74084,626.656,2839.27,2837.89,7.74137,0.0634201
1518.0,7.74057,626.821,2843.48,2842.09,7.74057,0.0626106
1521.0,7.73848,626.986,2847.67,2846.28,7.73848,0.0605111
1524.0,7.73877,627.151,2851.87,2850.47,7.73841,0.0604316
1527.0,7.73998,627.316,2856.06,2854.66,7.73831,0.0603221
1530.0,7.73636,627.481,2860.25,2858.85,7.73669,0.0586926
1533.0,7.73673,627.646,2864.44,2863.03,7.73697,0.0589631
1536.0,7.73834,627.811,2868.63,2867.21,7.73834,0.0603236
1539.0,7.73838,627.976,2872.82,2871.39,7.73675,0.058724
1542.0,7.73487,628.141,2877,2875.57,7.73505,0.0570145
1545.0,7.7368,628.306,2881.18,2879.74,7.73621,0.058165
1548.0,7.73454,628.471,2885.36,2883.92,7.73454,0.0564855
1551.0,7.73231,628.636,2889.53,2888.09,7.73353,0.055466
1554.0,7.73532,628.801,2893.71,2892.26,7.73532,0.0572465
1557.0,7.7356,628.966,2897.88,2896.42,7.73541,0.057327
1560.0,7.73447,629.131,2902.05,2900.59,7.73447,0.0563775
1563.0,7.73068,629.296,2906.21,2904.75,7.73068,0.052578
1566.0,7.73041,629.461,2910.38,2908.91,7.73041,0.0522985
1569.0,7.73155,629.626,2914.54,2913.06,7.73136,0.053239
1572.0,7.73199,629.791,2918.7,2917.22,7.73199,0.0538594
1575.0,7.73377,629.956,2922.86,2921.37,7.73351,0.0553699
1578.0,7.731,630.121,2927.02,2925.52,7.73159,0.0534404
1581.0,7.72872,630.286,2931.17,2929.67,7.73031,0.0521509
1584.0,7.73277,630.451,2935.32,2933.82,7.73088,0.0527114
1587.0,7.72894,630.616,2939.47,2937.96,7.73066,0.0524819
1590.0,7.72932,630.781,2943.62,2942.11,7.72932,0.0511324
1593.0,7.72804,630.946,2947.77,2946.25,7.72804,0.0498429
1596.0,7.72745,631.111,2951.91,2950.38,7.72745,0.0492434
1599.0,7.72764,631.276,2956.05,2954.52,7.7268,0.0485839
1602.0,7.72644,631.441,2960.19,2958.65,7.7261,0.0478744
1605.0,7.72758,631.606,2964.33,2962.79,7.72624,0.0480048
1608.0,7.72546,631.771,2968.46,2966.92,7.72546,0.0472153
1611.0,7.72382,631.936,2972.6,2971.04,7.72332,0.0450658
1614.0,7.72352,632.101,2976.73,2975.17,7.72264,0.0443763
1617.0,7.7238,632.266,2980.85,2979.29,7.72405,0.0457768
1620.0,7.72538,632.431,2984.98,2983.41,7.72538,0.0470973
1623.0,7.72145,632.596,2989.1,2987.53,7.72244,0.0441478
1626.0,7.72254,632.761,2993.23,2991.65,7.72254,0.0442383
1629.0,7.71996,632.926,2997.35,2995.76,7.72244,0.0441288
1632.0,7.72243,633.091,3001.46,2999.87,7.72243,0.0441093
1635.0,7.72199,633.256,3005.58,3003.98,7.72161,0.0432798
1638.0,7.71809,633.421,3009.69,3008.09,7.71934,0.0410002
1641.0,7.71932,633.585,3013.8,3012.2,7.71932,0.0409707
1644.0,7.71706,633.75,3017.91,3016.3,7.71788,0.0395212
1647.0,7.72016,633.915,3022.02,3020.4,7.7193,0.0409317
1650.0,7.71662,634.08,3026.12,3024.5,7.7175,0.0391222
1653.0,7.71499,634.245,3030.23,3028.6,7.71604,0.0376529
1656.0,7.71526,634.41,3034.33,3032.69,7.71604,0.0376438
1659.0,7.71698,634.575,3038.42,3036.79,7.71644,0.0380351
1662.0,7.71636,634.74,3042.52,3040.88,7.71634,0.0379265
1665.0,7.71543,634.905,3046.61,3044.97,7.71543,0.0370082
1668.0,7.7138,635.07,3050.71,3049.05,7.71471,0.0362801
1671.0,7.71361,635.235,3054.8,3053.14,7.71361,0.0351724
1674.0,7.71175,635.4,3058.88,3057.22,7.71242,0.033975
1677.0,7.71041,635.565,3062.97,3061.3,7.71041,0.0319578
1680.0,7.70986,635.73,3067.05,3065.38,7.70986,0.031401
1683.0,7.71117,635.895,3071.13,3069.45,7.71054,0.0320745
1686.0,7.70836,636.06,3075.21,3073.53,7.70836,0.0298882
1689.0,7.7067,636.225,3079.29,3077.6,7.7074,0.0289222
1692.0,7.70982,636.39,3083.36,3081.67,7.70804,0.0295565
1695.0,7.70672,636.555,3087.44,3085.74,7.70676,0.0282711
1698.0,7.71196,636.72,3091.51,3089.8,7.71014,0.0316459
1701.0,7.70859,636.885,3095.58,3093.87,7.70876,0.030261
1704.0,7.70705,637.05,3099.64,3097.93,7.70729,0.0287864
1707.0,7.70769,637.215,3103.71,3101.99,7.70726,0.028752
1710.0,7.70531,637.38,3107.77,3106.04,7.7056,0.0270879
1713.0,7.70607,637.545,3111.83,3110.1,7.7056,0.027084
1716.0,7.70185,637.71,3115.89,3114.15,7.70362,0.0251004
1719.0,7.70481,637.875,3119.94,3118.2,7.70362,0.025097
1722.0,7.70191,638.04,3124,3122.25,7.70193,0.0234038
1725.0,7.70352,638.205,3128.05,3126.3,7.70352,0.0249909
1728.0,7.70226,638.37,3132.1,3130.34,7.70369,0.0251581
1731.0,7.69914,638.535,3136.15,3134.38,7.70083,0.0222956
1734.0,7.7019,638.7,3140.19,3138.42,7.70039,0.0218533
1737.0,7.70046,638.865,3144.24,3142.46,7.70046,0.0219212
1740.0,7.69929,639.03,3148.28,3146.5,7.69929,0.0207493
1743.0,7.6961,639.195,3152.32,3150.53,7.69817,0.0196276
1746.0,7.69993,639.36,3156.35,3154.56,7.6996,0.021056
1749.0,7.69986,639.525,3160.39,3158.59,7.70004,0.0214947
1752.0,7.70109,639.69,3164.42,3162.62,7.70109,0.0225435
1755.0,7.70014,639.855,3168.45,3166.65,7.6996,0.0210525
1758.0,7.6947,640.02,3172.48,3170.67,7.69612,0.0175717
1761.0,7.6965,640.185,3176.51,3174.69,7.69612,0.0175711
1764.0,7.69582,640.35,3180.53,3178.71,7.69608,0.0175306
1767.0,7.6941,640.515,3184.55,3182.73,7.6941,0.0155503
1770.0,7.69277,640.68,3188.58,3186.74,7.6923,0.0137501
1773.0,7.69124,640.845,3192.59,3190.76,7.69134,0.0127901
1776.0,7.69173,641.01,3196.61,3194.77,7.69173,0.0131802
1779.0,7.69159,641.175,3200.62,3198.78,7.69159,0.0130403
1782.0,7.69457,641.34,3204.64,3202.78,7.69417,0.0156206
1785.0,7.69151,641.505,3208.65,3206.79,7.69151,0.0129611
1788.0,7.68954,641.67,3212.65,3210.79,7.68947,0.0109216
1791.0,7.6875,641.835,3216.66,3214.79,7.68796,0.00941228
1794.0,7.69123,642,3220.66,3218.79,7.69082,0.012273
1797.0,7.68959,642.165,3224.67,3222.79,7.68983,0.0112839
1800.0,7.68826,642.33,3228.67,3226.78,7.68826,0.00971481
1803.0,7.68688,642.495,3232.66,3230.78,7.68688,0.00833584
1806.0,7.68811,642.66,3236.66,3234.77,7.6859,0.00735695
1809.0,7.68485,642.825,3240.65,3238.76,7.68483,0.00628813
1812.0,7.68739,642.99,3244.65,3242.74,7.68739,0.00884937
1815.0,7.68646,643.155,3248.64,3246.73,7.68646,0.00792068
1818.0,7.68146,643.32,3252.62,3250.71,7.684,0.00546206
1821.0,7.68648,643.485,3256.61,3254.69,7.68414,0.00560348
1824.0,7.68273,643.65,3260.59,3258.67,7.68289,0.00435495
1827.0,7.68221,643.815,3264.57,3262.64,7.68286,0.00432647
1830.0,7.68244,643.98,3268.55,3266.62,7.68168,0.00314803
1833.0,7.68304,644.145,3272.53,3270.59,7.68287,0.00433961
1836.0,7.68096,644.31,3276.51,3274.56,7.68139,0.00286123
1839.0,7.68229,644.475,3280.48,3278.53,7.68114,0.00261287
1842.0,7.68091,644.64,3284.45,3282.5,7.68114,0.00261454
1845.0,7.68142,644.805,3288.42,3286.46,7.68181,0.00328623
1848.0,7.67979,644.97,3292.39,3290.42,7.68129,0.00276795
1851.0,7.68058,645.135,3296.35,3294.38,7.68026,0.00173969
1854.0,7.67699,645.3,3300.31,3298.34,7.67786,-0.000658563
1857.0,7.67945,645.465,3304.28,3302.3,7.67945,0.000933183
1860.0,7.68031,645.63,3308.23,3306.25,7.6799,0.00138493
1863.0,7.67769,645.795,3312.19,3310.2,7.677,-0.00151331
1866.0,7.67634,645.96,3316.15,3314.15,7.67648,-0.00203156
1869.0,7.67642,646.125,3320.1,3318.1,7.67668,-0.00182984
1872.0,7.6802,646.29,3324.05,3322.05,7.67951,0.00100188
1875.0,7.6787,646.455,3328,3325.99,7.6787,0.000193599
1878.0,7.6764,646.619,3331.95,3329.93,7.67794,-0.000564674
1881.0,7.68298,646.784,3335.89,3333.87,7.67998,0.00147705
1884.0,7.67738,646.949,3339.83,3337.81,7.67738,-0.00112121
1887.0,7.67594,647.114,3343.78,3341.74,7.67601,-0.00248948
1890.0,7.67563,647.279,3347.71,3345.68,7.67566,-0.00283776
1893.0,7.67597,647.444,3351.65,3349.61,7.67531,-0.00318607
1896.0,7.67511,647.609,3355.59,3353.54,7.67511,-0.00338441
1899.0,7.67612,647.774,3359.52,3357.47,7.67666,-0.00183277
1902.0,7.67663,647.939,3363.45,3361.39,7.67663,-0.00186115
1905.0,7.67593,648.104,3367.38,3365.32,7.67648,-0.00200954
1908.0,7.67513,648.269,3371.31,3369.24,7.67601,-0.00247795
1911.0,7.67822,648.434,3375.23,3373.16,7.67619,-0.00229639
1914.0,7.67358,648.599,3379.15,3377.08,7.67358,-0.00490483
1917.0,7.67175,648.764,3383.07,3380.99,7.67175,-0.00673333
1920.0,7.67674,648.929,3386.99,3384.91,7.67625,-0.00223188
1923.0,7.6741,649.094,3390.91,3388.82,7.6741,-0.00438044
1926.0,7.6709,649.259,3394.83,3392.73,7.67284,-0.00563905
1929.0,7.67604,649.424,3398.74,3396.64,7.6755,-0.00297771
1932.0,7.67625,649.589,3402.65,3400.54,7.67751,-0.000966406
1935.0,7.67769,649.754,3406.56,3404.45,7.67751,-0.00096511
1938.0,7.67431,649.919,3410.47,3408.35,7.67473,-0.00374383
1941.0,7.67383,650.084,3414.37,3412.25,7.67383,-0.00464258
1944.0,7.67435,650.249,3418.27,3416.15,7.67435,-0.00412137
1947.0,7.67659,650.414,3422.17,3420.04,7.67659,-0.0018802
1950.0,7.67623,650.579,3426.07,3423.94,7.67623,-0.00223905
1953.0,7.67226,650.744,3429.97,3427.83,7.67396,-0.00450793
1956.0,7.67726,650.909,3433.87,3431.72,7.67683,-0.00163685
1959.0,7.67481,651.074,3437.76,3435.61,7.67481,-0.00365579
1962.0,7.67109,651.239,3441.65,3439.49,7.67246,-0.00600477
1965.0,7.67342,651.404,3445.54,3443.38,7.67342,-0.0050438
1968.0,7.67353,651.569,3449.43,3447.26,7.67427,-0.00419288
1971.0,7.67489,651.734,3453.31,3451.14,7.67489,-0.003572
1974.0,7.67432,651.899,3457.2,3455.02,7.67442,-0.00404114
1977.0,7.67154,652.064,3461.08,3458.89,7.67155,-0.00691033
1980.0,7.67411,652.229,3464.96,3462.77,7.6726,-0.00585956
1983.0,7.66974,652.394,3468.83,3466.64,7.6726,-0.00585885
1986.0,7.67512,652.559,3472.71,3470.51,7.67512,-0.0033382
1989.0,7.67771,652.724,3476.58,3474.38,7.67652,-0.00193758
1992.0,7.67608,652.889,3480.45,3478.25,7.67667,-0.00178698
1995.0,7.6796,653.054,3484.32,3482.11,7.67851,5.36082e-05
1998.0,7.6755,653.219,3488.19,3485.97,7.6755,-0.00295581
2001.0,7.66983,653.384,3492.06,3489.83,7.67052,-0.00793524
2004.0,7.67365,653.549,3495.92,3493.69,7.67365,-0.00480475
2007.0,7.67486,653.714,3499.78,3497.55,7.67486,-0.00359431
2010.0,7.67201,653.879,3503.64,3501.4,7.67227,-0.00618389
2013.0,7.67446,654.044,3507.5,3505.26,7.67397,-0.00448353
2016.0,7.67398,654.209,3511.36,3509.11,7.67563,-0.0028232
2019.0,7.67926,654.374,3515.21,3512.96,7.67774,-0.000712903
2022.0,7.67441,654.539,3519.06,3516.8,7.67444,-0.00401261
2025.0,7.67403,654.704,3522.91,3520.65,7.67478,-0.00367234
2028.0,7.67666,654.869,3526.76,3524.49,7.67755,-0.000902109
2031.0,7.67813,655.034,3530.61,3528.33,7.67796,-0.000491885
2034.0,7.67457,655.199,3534.45,3532.17,7.67457,-0.00388167
2037.0,7.67202,655.364,3538.29,3536.01,7.6727,-0.00575148
2040.0,7.6767,655.529,3542.13,3539.85,7.67416,-0.00429135
2043.0,7.67156,655.694,3545.97,3543.68,7.67172,-0.00673124
2046.0,7.67221,655.859,3549.81,3547.51,7.67172,-0.00673118
2047.0,7.67239,655.914,3551.09,3548.79,7.67172,-0.00673118