File: data/processed/processed_data/2024-09-03/2024-09-03_glycinepowder_n_n_y_solid_1000_0_100.csv
Pixels #,Intensity (a.u.),Wavelength (nm),Raman shift (cm-1),Raman shift (cm-1) adjusted,Filtered Intensity (a.u.),Baselined Filtered Intensity (a.u.)
0.0,7.56429,543.337,392.223,393.994,7.56392,-0.0587918
3.0,7.56426,543.502,397.81,399.573,7.56426,-0.0584521
6.0,7.56427,543.667,403.394,405.15,7.56436,-0.058353
9.0,7.56531,543.832,408.974,410.723,7.56519,-0.0575244
12.0,7.56407,543.997,414.551,416.293,7.56394,-0.0587762
15.0,7.56346,544.162,420.125,421.859,7.56394,-0.0587786
18.0,7.56528,544.327,425.695,427.422,7.56418,-0.0585415
21.0,7.56182,544.492,431.261,432.981,7.56334,-0.059385
24.0,7.56487,544.657,436.825,438.537,7.56487,-0.0578589
27.0,7.56452,544.822,442.385,444.09,7.56452,-0.0582134
30.0,7.56491,544.987,447.941,449.64,7.56491,-0.0578284
33.0,7.56632,545.152,453.494,455.186,7.56632,-0.0564239
36.0,7.56621,545.317,459.044,460.728,7.56585,-0.0568998
39.0,7.56501,545.482,464.591,466.268,7.56558,-0.0571763
42.0,7.56445,545.647,470.134,471.804,7.56486,-0.0579033
45.0,7.56579,545.812,475.674,477.337,7.56535,-0.0574208
48.0,7.56742,545.977,481.21,482.866,7.56742,-0.0553588
51.0,7.56746,546.142,486.743,488.392,7.56754,-0.0552473
54.0,7.57089,546.307,492.273,493.915,7.57089,-0.0519063
57.0,7.5781,546.472,497.8,499.434,7.5781,-0.0447057
60.0,7.58531,546.637,503.323,504.95,7.58531,-0.0375055
63.0,7.59007,546.802,508.843,510.463,7.59007,-0.0327557
66.0,7.5964,546.967,514.359,515.972,7.5964,-0.0264361
69.0,7.60234,547.132,519.872,521.478,7.60234,-0.0205068
72.0,7.60873,547.297,525.382,526.981,7.60873,-0.0141277
75.0,7.61154,547.462,530.888,532.48,7.61154,-0.0113287
78.0,7.61961,547.627,536.392,537.976,7.61961,-0.00326977
81.0,7.62822,547.792,541.891,543.469,7.62822,0.00532912
84.0,7.63068,547.957,547.388,548.958,7.63068,0.00777804
87.0,7.63485,548.122,552.881,554.444,7.63485,0.011937
90.0,7.63592,548.287,558.371,559.927,7.63552,0.0125961
93.0,7.63587,548.452,563.858,565.407,7.6362,0.0132654
96.0,7.63758,548.617,569.341,570.883,7.63687,0.0139247
99.0,7.63693,548.782,574.821,576.356,7.63687,0.0139142
102.0,7.63613,548.947,580.298,581.826,7.63615,0.0131837
105.0,7.64066,549.112,585.771,587.292,7.63983,0.0168534
108.0,7.63741,549.277,591.241,592.755,7.63741,0.0144233
111.0,7.63862,549.442,596.708,598.215,7.63862,0.0156233
114.0,7.6396,549.607,602.172,603.671,7.63958,0.0165734
117.0,7.63854,549.772,607.632,609.125,7.63935,0.0163337
120.0,7.64137,549.937,613.089,614.575,7.64001,0.0169841
123.0,7.63811,550.102,618.543,620.021,7.63885,0.0158146
126.0,7.63999,550.267,623.993,625.465,7.6397,0.0166553
129.0,7.64048,550.432,629.44,630.905,7.63975,0.0166962
132.0,7.63729,550.597,634.884,636.342,7.63729,0.0142272
135.0,7.63664,550.762,640.325,641.776,7.63665,0.0135783
138.0,7.63887,550.927,645.762,647.206,7.63887,0.0157896
141.0,7.64091,551.092,651.197,652.633,7.64075,0.017661
144.0,7.64173,551.257,656.627,658.057,7.64173,0.0186325
147.0,7.64329,551.422,662.055,663.478,7.64329,0.0201842
150.0,7.64557,551.587,667.48,668.895,7.64469,0.0215761
153.0,7.6457,551.752,672.901,674.309,7.6457,0.0225782
156.0,7.64702,551.917,678.319,679.72,7.64706,0.0239305
159.0,7.65151,552.082,683.733,685.128,7.65151,0.028373
162.0,7.65475,552.247,689.145,690.533,7.65475,0.0316058
165.0,7.65876,552.412,694.553,695.934,7.65876,0.0356088
168.0,7.66245,552.577,699.958,701.332,7.66245,0.0392922
171.0,7.6681,552.742,705.36,706.727,7.6681,0.0449359
174.0,7.67235,552.907,710.758,712.118,7.67235,0.04918
177.0,7.67835,553.072,716.154,717.507,7.67835,0.0551746
180.0,7.68459,553.237,721.546,722.892,7.68459,0.0614096
183.0,7.69211,553.402,726.935,728.274,7.69211,0.0689252
186.0,7.70255,553.567,732.32,733.652,7.70255,0.0793614
189.0,7.71373,553.732,737.703,739.028,7.71373,0.0905383
192.0,7.72504,553.897,743.082,744.4,7.72504,0.101846
195.0,7.73385,554.062,748.458,749.769,7.73385,0.110655
198.0,7.74827,554.227,753.831,755.135,7.74827,0.125074
201.0,7.76329,554.392,759.201,760.498,7.76329,0.140094
204.0,7.78192,554.557,764.567,765.858,7.78192,0.158724
207.0,7.80032,554.722,769.93,771.214,7.80032,0.177124
210.0,7.81968,554.887,775.29,776.567,7.81968,0.196484
213.0,7.84369,555.052,780.647,781.917,7.84369,0.220494
216.0,7.86896,555.217,786.001,787.264,7.86896,0.245764
219.0,7.89351,555.382,791.352,792.608,7.89351,0.270314
222.0,7.92231,555.546,796.699,797.948,7.92231,0.299114
225.0,7.95391,555.711,802.043,803.285,7.95391,0.330714
228.0,7.98412,555.876,807.384,808.62,7.98412,0.360924
231.0,8.01859,556.041,812.722,813.951,8.01859,0.395394
234.0,8.05508,556.206,818.057,819.278,8.05508,0.431884
237.0,8.08775,556.371,823.388,824.603,8.08775,0.464554
240.0,8.12503,556.536,828.716,829.924,8.12503,0.501834
243.0,8.16096,556.701,834.042,835.243,8.16096,0.537764
246.0,8.19415,556.866,839.364,840.558,8.19415,0.570954
249.0,8.22868,557.031,844.682,845.87,8.22868,0.605484
252.0,8.25752,557.196,849.998,851.179,8.25752,0.634324
255.0,8.28504,557.361,855.311,856.485,8.28504,0.661844
258.0,8.30963,557.526,860.62,861.787,8.30963,0.686434
261.0,8.33351,557.691,865.927,867.087,8.33351,0.710314
264.0,8.35617,557.856,871.23,872.383,8.35617,0.732974
267.0,8.38028,558.021,876.53,877.676,8.38028,0.757084
270.0,8.4139,558.186,881.827,882.966,8.4139,0.790704
273.0,8.44881,558.351,887.12,888.253,8.44881,0.825614
276.0,8.46,558.516,892.411,893.537,8.46,0.836804
279.0,8.45671,558.681,897.698,898.818,8.45671,0.833514
282.0,8.44136,558.846,902.983,904.095,8.44136,0.818164
285.0,8.43449,559.011,908.264,909.37,8.43449,0.811294
288.0,8.43254,559.176,913.542,914.641,8.43329,0.810094
291.0,8.43845,559.341,918.817,919.909,8.43845,0.815254
294.0,8.44034,559.506,924.089,925.174,8.44034,0.817144
297.0,8.43961,559.671,929.358,930.436,8.43975,0.816554
300.0,8.44213,559.836,934.624,935.695,8.44117,0.817974
303.0,8.43944,560.001,939.886,940.951,8.44055,0.817354
306.0,8.44047,560.166,945.146,946.204,8.44067,0.817474
309.0,8.44064,560.331,950.402,951.454,8.44072,0.817524
312.0,8.44517,560.496,955.656,956.7,8.44245,0.819254
315.0,8.44035,560.661,960.906,961.944,8.44236,0.819164
318.0,8.44336,560.826,966.153,967.184,8.4426,0.819404
321.0,8.44361,560.991,971.397,972.421,8.44361,0.820414
324.0,8.44743,561.156,976.638,977.655,8.44667,0.823474
327.0,8.44875,561.321,981.876,982.887,8.44875,0.825554
330.0,8.45245,561.486,987.111,988.115,8.45245,0.829254
333.0,8.45326,561.651,992.342,993.34,8.45342,0.830224
336.0,8.4587,561.816,997.571,998.562,8.4587,0.835504
339.0,8.46412,561.981,1002.8,1003.78,8.46315,0.839954
342.0,8.46578,562.146,1008.02,1009,8.46578,0.842584
345.0,8.47057,562.311,1013.24,1014.21,8.47057,0.847374
348.0,8.47941,562.476,1018.45,1019.42,8.47941,0.856214
351.0,8.48755,562.641,1023.67,1024.63,8.48755,0.864354
354.0,8.49728,562.806,1028.88,1029.83,8.49728,0.874084
357.0,8.50463,562.971,1034.09,1035.03,8.50463,0.881434
360.0,8.50664,563.136,1039.29,1040.23,8.50662,0.883424
363.0,8.50479,563.301,1044.49,1045.42,8.50479,0.881594
366.0,8.50468,563.466,1049.69,1050.61,8.50468,0.881484
369.0,8.50729,563.631,1054.88,1055.8,8.50728,0.884084
372.0,8.50947,563.796,1060.08,1060.99,8.50803,0.884834
375.0,8.50784,563.961,1065.27,1066.17,8.50846,0.885264
378.0,8.51328,564.126,1070.45,1071.35,8.51334,0.890144
381.0,8.51437,564.291,1075.63,1076.52,8.5141,0.890904
384.0,8.51373,564.456,1080.81,1081.7,8.51388,0.890684
387.0,8.51711,564.621,1085.99,1086.87,8.51647,0.893274
390.0,8.51808,564.786,1091.16,1092.03,8.51808,0.894884
393.0,8.51753,564.951,1096.34,1097.2,8.51888,0.895684
396.0,8.52385,565.116,1101.5,1102.36,8.52322,0.900024
399.0,8.52592,565.281,1106.67,1107.52,8.52592,0.902724
402.0,8.52598,565.446,1111.83,1112.67,8.527,0.903804
405.0,8.52495,565.611,1116.99,1117.82,8.52495,0.901754
408.0,8.52573,565.776,1122.14,1122.97,8.52573,0.902534
411.0,8.52805,565.941,1127.3,1128.12,8.52805,0.904854
414.0,8.53292,566.106,1132.45,1133.26,8.5322,0.909004
417.0,8.53448,566.271,1137.59,1138.4,8.53448,0.911284
420.0,8.53612,566.436,1142.74,1143.54,8.53612,0.912924
423.0,8.53577,566.601,1147.88,1148.67,8.53577,0.912574
426.0,8.53387,566.766,1153.02,1153.81,8.53387,0.910674
429.0,8.53624,566.931,1158.15,1158.93,8.53617,0.912974
432.0,8.53969,567.096,1163.28,1164.06,8.53966,0.916464
435.0,8.53894,567.261,1168.41,1169.18,8.53939,0.916194
438.0,8.53861,567.426,1173.54,1174.3,8.53939,0.916194
441.0,8.545,567.591,1178.66,1179.42,8.54468,0.921484
444.0,8.5451,567.756,1183.78,1184.53,8.5451,0.921904
447.0,8.54898,567.921,1188.9,1189.64,8.54868,0.925484
450.0,8.54727,568.086,1194.01,1194.75,8.54868,0.925484
453.0,8.55546,568.251,1199.12,1199.85,8.55503,0.931834
456.0,8.55739,568.416,1204.23,1204.95,8.55739,0.934194
459.0,8.55949,568.58,1209.33,1210.05,8.55988,0.936684
462.0,8.5603,568.745,1214.44,1215.15,8.5603,0.937104
465.0,8.56197,568.91,1219.53,1220.24,8.56102,0.937824
468.0,8.56215,569.075,1224.63,1225.33,8.56215,0.938954
471.0,8.56371,569.24,1229.72,1230.42,8.56411,0.940914
474.0,8.56712,569.405,1234.81,1235.5,8.56703,0.943834
477.0,8.568,569.57,1239.9,1240.58,8.5677,0.944504
480.0,8.56858,569.735,1244.99,1245.66,8.56858,0.945384
483.0,8.56964,569.9,1250.07,1250.73,8.56964,0.946444
486.0,8.57217,570.065,1255.14,1255.8,8.57156,0.948364
489.0,8.5725,570.23,1260.22,1260.87,8.57239,0.949194
492.0,8.57229,570.395,1265.29,1265.94,8.57239,0.949194
495.0,8.57485,570.56,1270.36,1271,8.57485,0.951654
498.0,8.57776,570.725,1275.43,1276.06,8.57757,0.954374
501.0,8.57723,570.89,1280.49,1281.12,8.57757,0.954374
504.0,8.58001,571.055,1285.55,1286.17,8.58001,0.956814
507.0,8.58234,571.22,1290.61,1291.22,8.58234,0.959144
510.0,8.58608,571.385,1295.67,1296.27,8.58608,0.962884
513.0,8.59727,571.55,1300.72,1301.32,8.59727,0.974074
516.0,8.60806,571.715,1305.77,1306.36,8.60806,0.984864
519.0,8.62234,571.88,1310.81,1311.4,8.62234,0.999144
522.0,8.65144,572.045,1315.86,1316.44,8.65144,1.02824
525.0,8.6735,572.21,1320.9,1321.47,8.67216,1.04896
528.0,8.66997,572.375,1325.94,1326.5,8.66997,1.04677
531.0,8.64935,572.54,1330.97,1331.53,8.64935,1.02615
534.0,8.62247,572.705,1336,1336.56,8.62247,0.999274
537.0,8.60863,572.87,1341.03,1341.58,8.60863,0.985434
540.0,8.6044,573.035,1346.06,1346.6,8.60464,0.981444
543.0,8.60683,573.2,1351.08,1351.61,8.60683,0.983634
546.0,8.60952,573.365,1356.1,1356.63,8.60824,0.985044
549.0,8.60551,573.53,1361.12,1361.64,8.60663,0.983434
552.0,8.61222,573.695,1366.13,1366.65,8.61145,0.988254
555.0,8.61106,573.86,1371.14,1371.65,8.61279,0.989594
558.0,8.61707,574.025,1376.15,1376.65,8.61648,0.993284
561.0,8.61926,574.19,1381.16,1381.65,8.61926,0.996064
564.0,8.62586,574.355,1386.16,1386.65,8.62586,1.00266
567.0,8.63209,574.52,1391.16,1391.64,8.63209,1.00889
570.0,8.63976,574.685,1396.16,1396.63,8.63976,1.01656
573.0,8.65058,574.85,1401.15,1401.62,8.65058,1.02738
576.0,8.65679,575.015,1406.14,1406.61,8.65679,1.03359
579.0,8.65749,575.18,1411.13,1411.59,8.65741,1.03421
582.0,8.65067,575.345,1416.12,1416.57,8.65067,1.02747
585.0,8.64252,575.51,1421.1,1421.54,8.64252,1.01932
588.0,8.6365,575.675,1426.08,1426.52,8.63705,1.01385
591.0,8.63971,575.84,1431.06,1431.49,8.63971,1.01651
594.0,8.64419,576.005,1436.03,1436.46,8.64335,1.02015
597.0,8.64591,576.17,1441,1441.42,8.64591,1.02271
600.0,8.64763,576.335,1445.97,1446.38,8.64763,1.02443
603.0,8.64835,576.5,1450.94,1451.34,8.64789,1.02469
606.0,8.64728,576.665,1455.9,1456.3,8.64728,1.02408
609.0,8.64657,576.83,1460.86,1461.25,8.64657,1.02337
612.0,8.63969,576.995,1465.82,1466.2,8.63969,1.01649
615.0,8.64054,577.16,1470.77,1471.15,8.63921,1.01601
618.0,8.64071,577.325,1475.72,1476.1,8.64007,1.01687
621.0,8.64079,577.49,1480.67,1481.04,8.64126,1.01806
624.0,8.64264,577.655,1485.62,1485.98,8.64282,1.01962
627.0,8.64453,577.82,1490.56,1490.91,8.64438,1.02118
630.0,8.64868,577.985,1495.5,1495.85,8.64868,1.02548
633.0,8.65222,578.15,1500.44,1500.78,8.65213,1.02893
636.0,8.65266,578.315,1505.37,1505.71,8.65266,1.02946
639.0,8.65804,578.48,1510.3,1510.63,8.65722,1.03402
642.0,8.65805,578.645,1515.23,1515.55,8.65752,1.03432
645.0,8.65736,578.81,1520.16,1520.47,8.65758,1.03438
648.0,8.65649,578.975,1525.08,1525.39,8.65747,1.03427
651.0,8.65903,579.14,1530,1530.31,8.65865,1.03545
654.0,8.65819,579.305,1534.92,1535.22,8.65865,1.03545
657.0,8.65894,579.47,1539.83,1540.13,8.65894,1.03574
660.0,8.65973,579.635,1544.75,1545.03,8.6594,1.0362
663.0,8.65948,579.8,1549.65,1549.93,8.66002,1.03682
666.0,8.66433,579.965,1554.56,1554.83,8.66433,1.04113
669.0,8.66849,580.13,1559.47,1559.73,8.66849,1.04529
672.0,8.67337,580.295,1564.37,1564.63,8.67312,1.04992
675.0,8.67416,580.46,1569.26,1569.52,8.67312,1.04992
678.0,8.66882,580.625,1574.16,1574.41,8.66882,1.04562
681.0,8.66713,580.79,1579.05,1579.29,8.66717,1.04397
684.0,8.66574,580.955,1583.94,1584.18,8.66574,1.04254
687.0,8.66278,581.12,1588.83,1589.06,8.66281,1.03961
690.0,8.66223,581.285,1593.71,1593.94,8.6617,1.0385
693.0,8.66107,581.45,1598.59,1598.81,8.66107,1.03787
696.0,8.66223,581.614,1603.47,1603.68,8.66223,1.03903
699.0,8.66379,581.779,1608.35,1608.55,8.66379,1.04059
702.0,8.66621,581.944,1613.22,1613.42,8.66463,1.04143
705.0,8.66288,582.109,1618.09,1618.28,8.66427,1.04107
708.0,8.66453,582.274,1622.96,1623.15,8.66514,1.04194
711.0,8.66891,582.439,1627.83,1628,8.66739,1.04419
714.0,8.66452,582.604,1632.69,1632.86,8.66617,1.04297
717.0,8.66601,582.769,1637.55,1637.71,8.66601,1.04281
720.0,8.66206,582.934,1642.4,1642.56,8.66274,1.03954
723.0,8.66313,583.099,1647.26,1647.41,8.66311,1.03991
726.0,8.66342,583.264,1652.11,1652.26,8.66401,1.04081
729.0,8.66796,583.429,1656.96,1657.1,8.66807,1.04487
732.0,8.66866,583.594,1661.8,1661.94,8.66858,1.04538
735.0,8.67153,583.759,1666.65,1666.77,8.67153,1.04833
738.0,8.67001,583.924,1671.49,1671.61,8.67001,1.04681
741.0,8.66929,584.089,1676.32,1676.44,8.66813,1.04493
744.0,8.66712,584.254,1681.16,1681.27,8.668,1.0448
747.0,8.66578,584.419,1685.99,1686.09,8.66664,1.04344
750.0,8.66729,584.584,1690.82,1690.92,8.66696,1.04376
753.0,8.6667,584.749,1695.65,1695.74,8.66696,1.04376
756.0,8.66835,584.914,1700.47,1700.55,8.6679,1.0447
759.0,8.6669,585.079,1705.29,1705.37,8.6669,1.0437
762.0,8.66432,585.244,1710.11,1710.18,8.66567,1.04247
765.0,8.66794,585.409,1714.92,1714.99,8.66775,1.04455
768.0,8.66842,585.574,1719.74,1719.8,8.66842,1.04522
771.0,8.66994,585.739,1724.55,1724.6,8.66994,1.04674
774.0,8.67008,585.904,1729.35,1729.4,8.67008,1.04688
777.0,8.66988,586.069,1734.16,1734.2,8.67014,1.04694
780.0,8.66787,586.234,1738.96,1739,8.66876,1.04556
783.0,8.66972,586.399,1743.76,1743.79,8.66972,1.04652
786.0,8.67139,586.564,1748.56,1748.58,8.67108,1.04788
789.0,8.6711,586.729,1753.35,1753.37,8.67108,1.04788
792.0,8.66951,586.894,1758.14,1758.15,8.66957,1.04637
795.0,8.67275,587.059,1762.93,1762.94,8.67182,1.04862
798.0,8.66903,587.224,1767.72,1767.72,8.67016,1.04696
801.0,8.67088,587.389,1772.5,1772.49,8.67062,1.04742
804.0,8.67065,587.554,1777.28,1777.27,8.67062,1.04742
807.0,8.66723,587.719,1782.06,1782.04,8.66723,1.04403
810.0,8.66935,587.884,1786.83,1786.81,8.66935,1.04615
813.0,8.66873,588.049,1791.61,1791.57,8.66873,1.04553
816.0,8.66945,588.214,1796.38,1796.34,8.66865,1.04545
819.0,8.66841,588.379,1801.14,1801.1,8.66867,1.04547
822.0,8.6709,588.544,1805.91,1805.86,8.6709,1.0477
825.0,8.67123,588.709,1810.67,1810.61,8.67142,1.04822
828.0,8.67206,588.874,1815.43,1815.37,8.67206,1.04886
831.0,8.67187,589.039,1820.19,1820.12,8.67187,1.04867
834.0,8.67041,589.204,1824.94,1824.86,8.6706,1.0474
837.0,8.67105,589.369,1829.69,1829.61,8.67135,1.04815
840.0,8.6716,589.534,1834.44,1834.35,8.67161,1.04841
843.0,8.6722,589.699,1839.18,1839.09,8.67213,1.04893
846.0,8.67435,589.864,1843.93,1843.83,8.67407,1.05087
849.0,8.67246,590.029,1848.67,1848.56,8.67367,1.05047
852.0,8.67393,590.194,1853.41,1853.29,8.67393,1.05073
855.0,8.67439,590.359,1858.14,1858.02,8.67439,1.05119
858.0,8.67521,590.524,1862.87,1862.75,8.67466,1.05146
861.0,8.67498,590.689,1867.6,1867.47,8.67498,1.05178
864.0,8.67666,590.854,1872.33,1872.2,8.6761,1.0529
867.0,8.67633,591.019,1877.06,1876.91,8.6761,1.0529
870.0,8.67522,591.184,1881.78,1881.63,8.67522,1.05202
873.0,8.67534,591.349,1886.5,1886.34,8.67442,1.05122
876.0,8.67296,591.514,1891.21,1891.05,8.67312,1.04992
879.0,8.6741,591.679,1895.93,1895.76,8.6741,1.0509
882.0,8.67424,591.844,1900.64,1900.47,8.67441,1.05121
885.0,8.67439,592.009,1905.35,1905.17,8.67441,1.05121
888.0,8.6752,592.174,1910.05,1909.87,8.67494,1.05174
891.0,8.67263,592.339,1914.76,1914.57,8.67263,1.04943
894.0,8.66942,592.504,1919.46,1919.26,8.67049,1.04729
897.0,8.67085,592.669,1924.16,1923.96,8.67049,1.04729
900.0,8.6669,592.834,1928.85,1928.64,8.66809,1.04489
903.0,8.67025,592.999,1933.55,1933.33,8.67025,1.04705
906.0,8.67039,593.164,1938.24,1938.02,8.67039,1.04719
909.0,8.6663,593.329,1942.93,1942.7,8.66698,1.04378
912.0,8.66678,593.494,1947.61,1947.38,8.66678,1.04358
915.0,8.66415,593.659,1952.29,1952.05,8.66415,1.04095
918.0,8.66188,593.824,1956.97,1956.73,8.66277,1.03957
921.0,8.66425,593.989,1961.65,1961.4,8.66396,1.04076
924.0,8.66476,594.154,1966.33,1966.07,8.66372,1.04052
927.0,8.66124,594.319,1971,1970.73,8.6621,1.0389
930.0,8.66341,594.484,1975.67,1975.4,8.6627,1.0395
933.0,8.65989,594.648,1980.33,1980.06,8.65989,1.03669
936.0,8.65847,594.813,1985,1984.72,8.65847,1.03527
939.0,8.66146,594.978,1989.66,1989.37,8.65945,1.03625
942.0,8.6561,595.143,1994.32,1994.03,8.6561,1.0329
945.0,8.65339,595.308,1998.98,1998.68,8.65426,1.03106
948.0,8.65351,595.473,2003.63,2003.33,8.65351,1.03031
951.0,8.65207,595.638,2008.28,2007.97,8.65207,1.02887
954.0,8.65036,595.803,2012.93,2012.62,8.65036,1.02716
957.0,8.64667,595.968,2017.58,2017.26,8.64715,1.02395
960.0,8.64788,596.133,2022.22,2021.89,8.64788,1.02468
963.0,8.64912,596.298,2026.86,2026.53,8.64802,1.02482
966.0,8.64478,596.463,2031.5,2031.16,8.64505,1.02185
969.0,8.64545,596.628,2036.14,2035.79,8.64545,1.02225
972.0,8.64499,596.793,2040.77,2040.42,8.64499,1.02179
975.0,8.64255,596.958,2045.4,2045.05,8.64255,1.01935
978.0,8.63825,597.123,2050.03,2049.67,8.6392,1.016
981.0,8.63693,597.288,2054.66,2054.29,8.63693,1.01373
984.0,8.63783,597.453,2059.28,2058.91,8.63698,1.01378
987.0,8.63434,597.618,2063.9,2063.52,8.63434,1.01114
990.0,8.62993,597.783,2068.52,2068.13,8.63057,1.00737
993.0,8.62982,597.948,2073.14,2072.74,8.62984,1.00664
996.0,8.63107,598.113,2077.75,2077.35,8.63001,1.00681
999.0,8.62854,598.278,2082.36,2081.95,8.62862,1.00542
1002.0,8.62833,598.443,2086.97,2086.56,8.6279,1.0047
1005.0,8.62217,598.608,2091.57,2091.16,8.62303,0.999834
1008.0,8.62375,598.773,2096.18,2095.75,8.62303,0.999834
1011.0,8.62271,598.938,2100.78,2100.35,8.62222,0.999024
1014.0,8.61959,599.103,2105.38,2104.94,8.61959,0.996394
1017.0,8.61771,599.268,2109.97,2109.53,8.6182,0.995004
1020.0,8.61794,599.433,2114.56,2114.12,8.61842,0.995224
1023.0,8.61891,599.598,2119.15,2118.7,8.61786,0.994664
1026.0,8.61588,599.763,2123.74,2123.28,8.61647,0.993274
1029.0,8.61633,599.928,2128.33,2127.86,8.61633,0.993134
1032.0,8.61375,600.093,2132.91,2132.44,8.61375,0.990554
1035.0,8.61212,600.258,2137.49,2137.01,8.61177,0.988574
1038.0,8.60972,600.423,2142.07,2141.59,8.61146,0.988264
1041.0,8.61189,600.588,2146.64,2146.15,8.61189,0.988694
1044.0,8.60882,600.753,2151.22,2150.72,8.60882,0.985624
1047.0,8.60528,600.918,2155.79,2155.29,8.60528,0.982084
1050.0,8.60317,601.083,2160.35,2159.85,8.60384,0.980644
1053.0,8.60432,601.248,2164.92,2164.41,8.60432,0.981124
1056.0,8.60112,601.413,2169.48,2168.96,8.60155,0.978354
1059.0,8.60103,601.578,2174.04,2173.52,8.60103,0.977834
1062.0,8.59784,601.743,2178.6,2178.07,8.59888,0.975684
1065.0,8.59619,601.908,2183.16,2182.62,8.59619,0.972994
1068.0,8.59421,602.073,2187.71,2187.17,8.59433,0.971134
1071.0,8.59477,602.238,2192.26,2191.71,8.59477,0.971574
1074.0,8.59496,602.403,2196.81,2196.25,8.59496,0.971764
1077.0,8.59152,602.568,2201.35,2200.79,8.59217,0.968974
1080.0,8.59179,602.733,2205.89,2205.33,8.59179,0.968594
1083.0,8.59313,602.898,2210.43,2209.86,8.59304,0.969844
1086.0,8.5928,603.063,2214.97,2214.4,8.5928,0.969604
1089.0,8.58953,603.228,2219.51,2218.92,8.58953,0.966334
1092.0,8.58744,603.393,2224.04,2223.45,8.58864,0.965444
1095.0,8.58803,603.558,2228.57,2227.98,8.58803,0.964834
1098.0,8.58683,603.723,2233.1,2232.5,8.58683,0.963634
1101.0,8.58566,603.888,2237.62,2237.02,8.58566,0.962464
1104.0,8.58572,604.053,2242.15,2241.54,8.58572,0.962524
1107.0,8.58152,604.218,2246.67,2246.05,8.58159,0.958394
1110.0,8.58187,604.383,2251.19,2250.56,8.58187,0.958674
1113.0,8.58382,604.548,2255.7,2255.07,8.58263,0.959434
1116.0,8.58043,604.713,2260.21,2259.58,8.58098,0.957784
1119.0,8.58089,604.878,2264.72,2264.08,8.58089,0.957694
1122.0,8.57733,605.043,2269.23,2268.59,8.57733,0.954134
1125.0,8.57451,605.208,2273.74,2273.09,8.57451,0.951314
1128.0,8.57247,605.373,2278.24,2277.58,8.57247,0.949274
1131.0,8.5727,605.538,2282.74,2282.08,8.57243,0.949234
1134.0,8.57229,605.703,2287.24,2286.57,8.57229,0.949094
1137.0,8.57119,605.868,2291.74,2291.06,8.57119,0.947994
1140.0,8.5695,606.033,2296.23,2295.55,8.56958,0.946384
1143.0,8.56954,606.198,2300.72,2300.03,8.56952,0.946324
1146.0,8.56637,606.363,2305.21,2304.52,8.56637,0.943174
1149.0,8.56678,606.528,2309.7,2309,8.56564,0.942444
1152.0,8.56194,606.693,2314.18,2313.47,8.56337,0.940174
1155.0,8.5646,606.858,2318.66,2317.95,8.56355,0.940354
1158.0,8.56391,607.023,2323.14,2322.42,8.56391,0.940714
1161.0,8.56306,607.188,2327.62,2326.89,8.56306,0.939864
1164.0,8.5607,607.353,2332.09,2331.36,8.56155,0.938354
1167.0,8.56057,607.518,2336.56,2335.83,8.56057,0.937374
1170.0,8.55827,607.682,2341.03,2340.29,8.55908,0.935884
1173.0,8.55966,607.847,2345.5,2344.75,8.55861,0.935414
1176.0,8.55522,608.012,2349.96,2349.21,8.55522,0.932024
1179.0,8.55407,608.177,2354.42,2353.67,8.55467,0.931474
1182.0,8.55496,608.342,2358.88,2358.12,8.55493,0.931734
1185.0,8.55084,608.507,2363.34,2362.57,8.55175,0.928554
1188.0,8.55061,608.672,2367.79,2367.02,8.55061,0.927414
1191.0,8.55039,608.837,2372.25,2371.47,8.5489,0.925704
1194.0,8.54859,609.002,2376.7,2375.91,8.54859,0.925394
1197.0,8.54742,609.167,2381.14,2380.35,8.54709,0.923894
1200.0,8.54454,609.332,2385.59,2384.79,8.54454,0.921344
1203.0,8.54236,609.497,2390.03,2389.23,8.54289,0.919694
1206.0,8.5429,609.662,2394.47,2393.66,8.54289,0.919694
1209.0,8.5409,609.827,2398.91,2398.09,8.5409,0.917704
1212.0,8.5386,609.992,2403.34,2402.52,8.53895,0.915754
1215.0,8.53779,610.157,2407.78,2406.95,8.53779,0.914594
1218.0,8.53415,610.322,2412.21,2411.38,8.53552,0.912324
1221.0,8.53832,610.487,2416.63,2415.8,8.53824,0.915044
1224.0,8.53227,610.652,2421.06,2420.22,8.53227,0.909074
1227.0,8.52901,610.817,2425.48,2424.64,8.52901,0.905814
1230.0,8.52951,610.982,2429.9,2429.05,8.5294,0.906204
1233.0,8.52988,611.147,2434.32,2433.46,8.5294,0.906204
1236.0,8.52723,611.312,2438.74,2437.87,8.52718,0.903984
1239.0,8.52318,611.477,2443.15,2442.28,8.52341,0.900214
1242.0,8.52362,611.642,2447.56,2446.69,8.52282,0.899624
1245.0,8.51896,611.807,2451.97,2451.09,8.52169,0.898494
1248.0,8.52379,611.972,2456.38,2455.49,8.52211,0.898914
1251.0,8.51824,612.137,2460.78,2459.89,8.51923,0.896034
1254.0,8.51941,612.302,2465.19,2464.29,8.51941,0.896214
1257.0,8.51727,612.467,2469.59,2468.68,8.51727,0.894074
1260.0,8.51427,612.632,2473.98,2473.07,8.51427,0.891074
1263.0,8.51155,612.797,2478.38,2477.46,8.51155,0.888354
1266.0,8.51085,612.962,2482.77,2481.85,8.51085,0.887654
1269.0,8.50986,613.127,2487.16,2486.23,8.51039,0.887194
1272.0,8.50787,613.292,2491.55,2490.61,8.50787,0.884674
1275.0,8.50553,613.457,2495.93,2494.99,8.50553,0.882334
1278.0,8.50247,613.622,2500.32,2499.37,8.50263,0.879434
1281.0,8.49986,613.787,2504.7,2503.75,8.49986,0.876664
1284.0,8.49947,613.952,2509.07,2508.12,8.49947,0.876274
1287.0,8.49965,614.117,2513.45,2512.49,8.49965,0.876454
1290.0,8.49567,614.282,2517.82,2516.86,8.49567,0.872474
1293.0,8.49447,614.447,2522.19,2521.22,8.49394,0.870744
1296.0,8.493,614.612,2526.56,2525.59,8.493,0.869804
1299.0,8.49013,614.777,2530.93,2529.95,8.49013,0.866934
1302.0,8.48609,614.942,2535.29,2534.3,8.48693,0.863734
1305.0,8.48697,615.107,2539.66,2538.66,8.48557,0.862374
1308.0,8.48237,615.272,2544.02,2543.01,8.48237,0.859174
1311.0,8.47945,615.437,2548.37,2547.37,8.47945,0.856254
1314.0,8.47708,615.602,2552.73,2551.72,8.47708,0.853884
1317.0,8.47465,615.767,2557.08,2556.06,8.47492,0.851724
1320.0,8.47355,615.932,2561.43,2560.41,8.47355,0.850354
1323.0,8.47105,616.097,2565.78,2564.75,8.47105,0.847854
1326.0,8.47047,616.262,2570.12,2569.09,8.47015,0.846954
1329.0,8.46726,616.427,2574.47,2573.43,8.46726,0.844064
1332.0,8.46305,616.592,2578.81,2577.76,8.46305,0.839854
1335.0,8.46201,616.757,2583.15,2582.09,8.46195,0.838754
1338.0,8.4614,616.922,2587.48,2586.42,8.46195,0.838754
1341.0,8.4579,617.087,2591.82,2590.75,8.45803,0.834834
1344.0,8.45911,617.252,2596.15,2595.08,8.45851,0.835314
1347.0,8.45733,617.417,2600.48,2599.4,8.45733,0.834134
1350.0,8.45673,617.582,2604.8,2603.72,8.45527,0.832074
1353.0,8.45358,617.747,2609.13,2608.04,8.45373,0.830534
1356.0,8.45175,617.912,2613.45,2612.36,8.45175,0.828554
1359.0,8.44667,618.077,2617.77,2616.67,8.44667,0.823474
1362.0,8.44353,618.242,2622.09,2620.99,8.44339,0.820194
1365.0,8.44254,618.407,2626.4,2625.3,8.44231,0.819114
1368.0,8.43969,618.572,2630.72,2629.6,8.43969,0.816494
1371.0,8.43735,618.737,2635.03,2633.91,8.43735,0.814154
1374.0,8.43242,618.902,2639.34,2638.21,8.43362,0.810424
1377.0,8.43495,619.067,2643.64,2642.51,8.43362,0.810424
1380.0,8.43025,619.232,2647.95,2646.81,8.43025,0.807054
1383.0,8.42729,619.397,2652.25,2651.11,8.42776,0.804564
1386.0,8.42875,619.562,2656.55,2655.4,8.42861,0.805414
1389.0,8.42716,619.727,2660.84,2659.69,8.42716,0.803964
1392.0,8.42178,619.892,2665.14,2663.98,8.42178,0.798584
1395.0,8.42248,620.057,2669.43,2668.27,8.42227,0.799074
1398.0,8.42169,620.222,2673.72,2672.55,8.42169,0.798494
1401.0,8.41624,620.387,2678.01,2676.84,8.41624,0.793044
1404.0,8.41633,620.551,2682.29,2681.12,8.41584,0.792644
1407.0,8.41287,620.716,2686.58,2685.39,8.41311,0.789914
1410.0,8.41144,620.881,2690.86,2689.67,8.41144,0.788244
1413.0,8.41051,621.046,2695.14,2693.94,8.41051,0.787314
1416.0,8.40929,621.211,2699.41,2698.21,8.40929,0.786094
1419.0,8.40575,621.376,2703.69,2702.48,8.40663,0.783434
1422.0,8.40412,621.541,2707.96,2706.75,8.40412,0.780924
1425.0,8.40253,621.706,2712.23,2711.01,8.40253,0.779334
1428.0,8.40231,621.871,2716.5,2715.27,8.40189,0.778694
1431.0,8.40163,622.036,2720.76,2719.53,8.40168,0.778484
1434.0,8.39903,622.201,2725.03,2723.79,8.39941,0.776214
1437.0,8.40121,622.366,2729.29,2728.05,8.39941,0.776214
1440.0,8.39491,622.531,2733.54,2732.3,8.39581,0.772614
1443.0,8.39629,622.696,2737.8,2736.55,8.39581,0.772614
1446.0,8.39588,622.861,2742.05,2740.8,8.39567,0.772474
1449.0,8.39178,623.026,2746.31,2745.04,8.39178,0.768584
1452.0,8.38733,623.191,2750.56,2749.29,8.38829,0.765094
1455.0,8.38887,623.356,2754.8,2753.53,8.3881,0.764904
1458.0,8.38375,623.521,2759.05,2757.77,8.38493,0.761734
1461.0,8.38438,623.686,2763.29,2762.01,8.38416,0.760964
1464.0,8.38537,623.851,2767.53,2766.24,8.3832,0.760004
1467.0,8.37974,624.016,2771.77,2770.47,8.37979,0.756594
1470.0,8.37747,624.181,2776,2774.7,8.37831,0.755114
1473.0,8.37818,624.346,2780.24,2778.93,8.37818,0.754984
1476.0,8.37625,624.511,2784.47,2783.16,8.37625,0.753054
1479.0,8.37534,624.676,2788.7,2787.38,8.37534,0.752144
1482.0,8.37316,624.841,2792.93,2791.6,8.37316,0.749964
1485.0,8.37308,625.006,2797.15,2795.82,8.37281,0.749614
1488.0,8.37082,625.171,2801.37,2800.04,8.37079,0.747594
1491.0,8.36952,625.336,2805.59,2804.25,8.36913,0.745934
1494.0,8.3664,625.501,2809.81,2808.47,8.36662,0.743424
1497.0,8.36512,625.666,2814.03,2812.68,8.36548,0.742284
1500.0,8.36402,625.831,2818.24,2816.89,8.36402,0.740824
1503.0,8.36191,625.996,2822.45,2821.09,8.36191,0.738714
1506.0,8.36115,626.161,2826.66,2825.3,8.36137,0.738174
1509.0,8.36002,626.326,2830.87,2829.5,8.36002,0.736824
1512.0,8.35877,626.491,2835.07,2833.7,8.35827,0.735074
1515.0,8.35596,626.656,2839.27,2837.89,8.35596,0.732764
1518.0,8.35303,626.821,2843.48,2842.09,8.35331,0.730114
1521.0,8.35121,626.986,2847.67,2846.28,8.35121,0.728014
1524.0,8.34976,627.151,2851.87,2850.47,8.35036,0.727164
1527.0,8.35029,627.316,2856.06,2854.66,8.34922,0.726024
1530.0,8.34671,627.481,2860.25,2858.85,8.34726,0.724064
1533.0,8.34623,627.646,2864.44,2863.03,8.34623,0.723034
1536.0,8.34595,627.811,2868.63,2867.21,8.34595,0.722754
1539.0,8.34706,627.976,2872.82,2871.39,8.34682,0.723624
1542.0,8.34539,628.141,2877,2875.57,8.34539,0.722194
1545.0,8.34607,628.306,2881.18,2879.74,8.3452,0.722004
1548.0,8.33958,628.471,2885.36,2883.92,8.33958,0.716384
1551.0,8.3371,628.636,2889.53,2888.09,8.33878,0.715584
1554.0,8.33984,628.801,2893.71,2892.26,8.33878,0.715584
1557.0,8.33769,628.966,2897.88,2896.42,8.33769,0.714494
1560.0,8.3362,629.131,2902.05,2900.59,8.33619,0.712994
1563.0,8.33132,629.296,2906.21,2904.75,8.33132,0.708124
1566.0,8.32973,629.461,2910.38,2908.91,8.32929,0.706094
1569.0,8.32497,629.626,2914.54,2913.06,8.32645,0.703254
1572.0,8.32788,629.791,2918.7,2917.22,8.32757,0.704374
1575.0,8.32612,629.956,2922.86,2921.37,8.32612,0.702924
1578.0,8.32122,630.121,2927.02,2925.52,8.32181,0.698614
1581.0,8.32062,630.286,2931.17,2929.67,8.32062,0.697424
1584.0,8.32066,630.451,2935.32,2933.82,8.32046,0.697264
1587.0,8.31711,630.616,2939.47,2937.96,8.31898,0.695784
1590.0,8.31987,630.781,2943.62,2942.11,8.31898,0.695784
1593.0,8.31863,630.946,2947.77,2946.25,8.31885,0.695654
1596.0,8.32375,631.111,2951.91,2950.38,8.32375,0.700554
1599.0,8.32976,631.276,2956.05,2954.52,8.32976,0.706564
1602.0,8.34269,631.441,2960.19,2958.65,8.34269,0.719494
1605.0,8.3612,631.606,2964.33,2962.79,8.3612,0.738004
1608.0,8.37248,631.771,2968.46,2966.92,8.37248,0.749284
1611.0,8.37347,631.936,2972.6,2971.04,8.37347,0.750274
1614.0,8.35889,632.101,2976.73,2975.17,8.35889,0.735694
1617.0,8.33528,632.266,2980.85,2979.29,8.33528,0.712084
1620.0,8.31388,632.431,2984.98,2983.41,8.31388,0.690684
1623.0,8.29822,632.596,2989.1,2987.53,8.29822,0.675024
1626.0,8.29166,632.761,2993.23,2991.65,8.29223,0.669034
1629.0,8.29284,632.926,2997.35,2995.76,8.29296,0.669764
1632.0,8.30054,633.091,3001.46,2999.87,8.30054,0.677344
1635.0,8.30266,633.256,3005.58,3003.98,8.30266,0.679464
1638.0,8.29833,633.421,3009.69,3008.09,8.29833,0.675134
1641.0,8.28566,633.585,3013.8,3012.2,8.28566,0.662464
1644.0,8.2712,633.75,3017.91,3016.3,8.2712,0.648004
1647.0,8.26375,633.915,3022.02,3020.4,8.26375,0.640554
1650.0,8.25506,634.08,3026.12,3024.5,8.25506,0.631864
1653.0,8.25079,634.245,3030.23,3028.6,8.25079,0.627594
1656.0,8.24687,634.41,3034.33,3032.69,8.24703,0.623834
1659.0,8.24408,634.575,3038.42,3036.79,8.24408,0.620884
1662.0,8.24329,634.74,3042.52,3040.88,8.24159,0.618394
1665.0,8.23879,634.905,3046.61,3044.97,8.23879,0.615594
1668.0,8.23489,635.07,3050.71,3049.05,8.23489,0.611694
1671.0,8.23332,635.235,3054.8,3053.14,8.2333,0.610104
1674.0,8.2306,635.4,3058.88,3057.22,8.2306,0.607404
1677.0,8.22677,635.565,3062.97,3061.3,8.22681,0.603614
1680.0,8.22408,635.73,3067.05,3065.38,8.22408,0.600884
1683.0,8.22169,635.895,3071.13,3069.45,8.22169,0.598494
1686.0,8.21682,636.06,3075.21,3073.53,8.21682,0.593624
1689.0,8.21368,636.225,3079.29,3077.6,8.21375,0.590554
1692.0,8.21171,636.39,3083.36,3081.67,8.21171,0.588514
1695.0,8.21089,636.555,3087.44,3085.74,8.21089,0.587694
1698.0,8.2108,636.72,3091.51,3089.8,8.2108,0.587604
1701.0,8.20619,636.885,3095.58,3093.87,8.20619,0.582994
1704.0,8.2031,637.05,3099.64,3097.93,8.2031,0.579904
1707.0,8.2027,637.215,3103.71,3101.99,8.20215,0.578954
1710.0,8.1981,637.38,3107.77,3106.04,8.19925,0.576054
1713.0,8.19602,637.545,3111.83,3110.1,8.19602,0.572824
1716.0,8.19491,637.71,3115.89,3114.15,8.19491,0.571714
1719.0,8.19612,637.875,3119.94,3118.2,8.19463,0.571434
1722.0,8.19179,638.04,3124,3122.25,8.19395,0.570754
1725.0,8.19446,638.205,3128.05,3126.3,8.19395,0.570754
1728.0,8.19209,638.37,3132.1,3130.34,8.19196,0.568764
1731.0,8.18967,638.535,3136.15,3134.38,8.19047,0.567274
1734.0,8.1896,638.7,3140.19,3138.42,8.1894,0.566204
1737.0,8.18957,638.865,3144.24,3142.46,8.1891,0.565904
1740.0,8.18528,639.03,3148.28,3146.5,8.18528,0.562084
1743.0,8.17625,639.195,3152.32,3150.53,8.17792,0.554724
1746.0,8.17743,639.36,3156.35,3154.56,8.17675,0.553554
1749.0,8.17636,639.525,3160.39,3158.59,8.17636,0.553164
1752.0,8.1718,639.69,3164.42,3162.62,8.1718,0.548604
1755.0,8.16887,639.855,3168.45,3166.65,8.16887,0.545674
1758.0,8.16404,640.02,3172.48,3170.67,8.16404,0.540844
1761.0,8.16091,640.185,3176.51,3174.69,8.16091,0.537714
1764.0,8.15786,640.35,3180.53,3178.71,8.15761,0.534414
1767.0,8.15522,640.515,3184.55,3182.73,8.15522,0.532024
1770.0,8.15168,640.68,3188.58,3186.74,8.15168,0.528484
1773.0,8.1476,640.845,3192.59,3190.76,8.1476,0.524404
1776.0,8.14589,641.01,3196.61,3194.77,8.14595,0.522754
1779.0,8.14655,641.175,3200.62,3198.78,8.14541,0.522214
1782.0,8.14169,641.34,3204.64,3202.78,8.14213,0.518934
1785.0,8.13986,641.505,3208.65,3206.79,8.13986,0.516664
1788.0,8.13575,641.67,3212.65,3210.79,8.13575,0.512554
1791.0,8.13337,641.835,3216.66,3214.79,8.13281,0.509614
1794.0,8.13341,642,3220.66,3218.79,8.13232,0.509124
1797.0,8.13033,642.165,3224.67,3222.79,8.13033,0.507134
1800.0,8.12749,642.33,3228.67,3226.78,8.12749,0.504294
1803.0,8.12506,642.495,3232.66,3230.78,8.12506,0.501864
1806.0,8.12416,642.66,3236.66,3234.77,8.12351,0.500314
1809.0,8.11748,642.825,3240.65,3238.76,8.11794,0.494744
1812.0,8.11768,642.99,3244.65,3242.74,8.11768,0.494484
1815.0,8.11685,643.155,3248.64,3246.73,8.11685,0.493654
1818.0,8.11328,643.32,3252.62,3250.71,8.11336,0.490164
1821.0,8.11356,643.485,3256.61,3254.69,8.11296,0.489764
1824.0,8.10694,643.65,3260.59,3258.67,8.10791,0.484714
1827.0,8.10876,643.815,3264.57,3262.64,8.1077,0.484504
1830.0,8.10446,643.98,3268.55,3266.62,8.10446,0.481264
1833.0,8.10408,644.145,3272.53,3270.59,8.10389,0.480694
1836.0,8.09923,644.31,3276.51,3274.56,8.09934,0.476144
1839.0,8.09769,644.475,3280.48,3278.53,8.09769,0.474494
1842.0,8.09593,644.64,3284.45,3282.5,8.09584,0.472644
1845.0,8.09583,644.805,3288.42,3286.46,8.09559,0.472394
1848.0,8.0928,644.97,3292.39,3290.42,8.0928,0.469604
1851.0,8.09049,645.135,3296.35,3294.38,8.09013,0.466934
1854.0,8.08792,645.3,3300.31,3298.34,8.08792,0.464724
1857.0,8.08499,645.465,3304.28,3302.3,8.08499,0.461794
1860.0,8.08249,645.63,3308.23,3306.25,8.08259,0.459394
1863.0,8.0815,645.795,3312.19,3310.2,8.0815,0.458304
1866.0,8.07895,645.96,3316.15,3314.15,8.07895,0.455754
1869.0,8.07772,646.125,3320.1,3318.1,8.07772,0.454524
1872.0,8.07824,646.29,3324.05,3322.05,8.07824,0.455044
1875.0,8.0753,646.455,3328,3325.99,8.0753,0.452104
1878.0,8.07254,646.619,3331.95,3329.93,8.07254,0.449344
1881.0,8.07064,646.784,3335.89,3333.87,8.0704,0.447204
1884.0,8.07045,646.949,3339.83,3337.81,8.0704,0.447204
1887.0,8.06839,647.114,3343.78,3341.74,8.06839,0.445194
1890.0,8.06706,647.279,3347.71,3345.68,8.06715,0.443954
1893.0,8.06536,647.444,3351.65,3349.61,8.06536,0.442164
1896.0,8.06195,647.609,3355.59,3353.54,8.06195,0.438754
1899.0,8.06016,647.774,3359.52,3357.47,8.06042,0.437224
1902.0,8.05966,647.939,3363.45,3361.39,8.05966,0.436464
1905.0,8.05814,648.104,3367.38,3365.32,8.05814,0.434944
1908.0,8.05535,648.269,3371.31,3369.24,8.05535,0.432154
1911.0,8.055,648.434,3375.23,3373.16,8.05452,0.431324
1914.0,8.05172,648.599,3379.15,3377.08,8.05172,0.428524
1917.0,8.05024,648.764,3383.07,3380.99,8.04987,0.426674
1920.0,8.05021,648.929,3386.99,3384.91,8.04978,0.426584
1923.0,8.04645,649.094,3390.91,3388.82,8.04645,0.423254
1926.0,8.04474,649.259,3394.83,3392.73,8.04474,0.421544
1929.0,8.0442,649.424,3398.74,3396.64,8.04329,0.420094
1932.0,8.04121,649.589,3402.65,3400.54,8.04149,0.418294
1935.0,8.04063,649.754,3406.56,3404.45,8.03924,0.416044
1938.0,8.03515,649.919,3410.47,3408.35,8.03564,0.412444
1941.0,8.03391,650.084,3414.37,3412.25,8.03391,0.410714
1944.0,8.03224,650.249,3418.27,3416.15,8.03224,0.409044
1947.0,8.02947,650.414,3422.17,3420.04,8.02992,0.406724
1950.0,8.02981,650.579,3426.07,3423.94,8.02929,0.406094
1953.0,8.02605,650.744,3429.97,3427.83,8.02645,0.403254
1956.0,8.026,650.909,3433.87,3431.72,8.02594,0.402744
1959.0,8.02109,651.074,3437.76,3435.61,8.02109,0.397894
1962.0,8.01946,651.239,3441.65,3439.49,8.01946,0.396264
1965.0,8.02076,651.404,3445.54,3443.38,8.01933,0.396134
1968.0,8.01868,651.569,3449.43,3447.26,8.01898,0.395784
1971.0,8.01673,651.734,3453.31,3451.14,8.01673,0.393534
1974.0,8.0115,651.899,3457.2,3455.02,8.0115,0.388304
1977.0,8.00988,652.064,3461.08,3458.89,8.01012,0.386924
1980.0,8.01009,652.229,3464.96,3462.77,8.00988,0.386684
1983.0,8.00732,652.394,3468.83,3466.64,8.00732,0.384124
1986.0,8.00718,652.559,3472.71,3470.51,8.00615,0.382954
1989.0,8.00376,652.724,3476.58,3474.38,8.0038,0.380604
1992.0,8.00287,652.889,3480.45,3478.25,8.00331,0.380114
1995.0,8.00219,653.054,3484.32,3482.11,8.00219,0.378994
1998.0,7.99866,653.219,3488.19,3485.97,7.99866,0.375464
2001.0,7.99457,653.384,3492.06,3489.83,7.99523,0.372034
2004.0,7.99534,653.549,3495.92,3493.69,7.99534,0.372144
2007.0,7.9961,653.714,3499.78,3497.55,7.99597,0.372774
2010.0,7.99438,653.879,3503.64,3501.4,7.99438,0.371184
2013.0,7.99075,654.044,3507.5,3505.26,7.99075,0.367554
2016.0,7.98647,654.209,3511.36,3509.11,7.98707,0.363874
2019.0,7.98663,654.374,3515.21,3512.96,7.98663,0.363434
2022.0,7.98551,654.539,3519.06,3516.8,7.98572,0.362524
2025.0,7.98716,654.704,3522.91,3520.65,7.98622,0.363024
2028.0,7.98213,654.869,3526.76,3524.49,7.98213,0.358934
2031.0,7.97987,655.034,3530.61,3528.33,7.97987,0.356674
2034.0,7.9791,655.199,3534.45,3532.17,7.9791,0.355904
2037.0,7.97538,655.364,3538.29,3536.01,7.97538,0.352184
2040.0,7.97615,655.529,3542.13,3539.85,7.97615,0.352954
2043.0,7.97463,655.694,3545.97,3543.68,7.97463,0.351434
2046.0,7.97159,655.859,3549.81,3547.51,7.97167,0.348474
2047.0,7.97179,655.914,3551.09,3548.79,7.97159,0.348394