File: data/processed/processed_data/2024-09-03/2024-09-03_glycinepowder_n_y_y_solid_10000_0_20.csv
Pixels #,Intensity (a.u.),Wavelength (nm),Raman shift (cm-1),Raman shift (cm-1) adjusted,Filtered Intensity (a.u.),Baselined Filtered Intensity (a.u.)
0.0,0.795199,543.337,392.223,393.994,0.794854,-0.0434656
3.0,0.79507,543.502,397.81,399.573,0.79507,-0.0432499
6.0,0.7954,543.667,403.394,405.15,0.795368,-0.0429525
9.0,0.7955,543.832,408.974,410.723,0.7955,-0.0428215
12.0,0.795143,543.997,414.551,416.293,0.795143,-0.0431799
15.0,0.794995,544.162,420.125,421.859,0.794995,-0.0433297
18.0,0.795663,544.327,425.695,427.422,0.79527,-0.0430568
21.0,0.794473,544.492,431.261,432.981,0.794437,-0.0438924
24.0,0.793833,544.657,436.825,438.537,0.794128,-0.0442043
27.0,0.795411,544.822,442.385,444.09,0.794969,-0.0433666
30.0,0.795404,544.987,447.941,449.64,0.795404,-0.0429353
33.0,0.794536,545.152,453.494,455.186,0.795115,-0.0432283
36.0,0.795595,545.317,459.044,460.728,0.795282,-0.0430658
39.0,0.795508,545.482,464.591,466.268,0.795437,-0.0429156
42.0,0.794492,545.647,470.134,471.804,0.795185,-0.0431728
45.0,0.795652,545.812,475.674,477.337,0.795652,-0.0427114
48.0,0.797282,545.977,481.21,482.866,0.797253,-0.0411163
51.0,0.797708,546.142,486.743,488.392,0.797708,-0.0406677
54.0,0.800533,546.307,492.273,493.915,0.800533,-0.0378493
57.0,0.804762,546.472,497.8,499.434,0.804762,-0.0336273
60.0,0.809828,546.637,503.323,504.95,0.809828,-0.0285687
63.0,0.814516,546.802,508.843,510.463,0.814516,-0.0238882
66.0,0.819581,546.967,514.359,515.972,0.819581,-0.018831
69.0,0.823261,547.132,519.872,521.478,0.823261,-0.0151589
72.0,0.827477,547.297,525.382,526.981,0.827477,-0.010951
75.0,0.831312,547.462,530.888,532.48,0.831312,-0.00712417
78.0,0.836932,547.627,536.392,537.976,0.836932,-0.0015124
81.0,0.841635,547.792,541.891,543.469,0.841635,0.00318236
84.0,0.844456,547.957,547.388,548.958,0.844456,0.00599514
87.0,0.847215,548.122,552.881,554.444,0.847215,0.00874597
90.0,0.847995,548.287,558.371,559.927,0.847773,0.00929589
93.0,0.847721,548.452,563.858,565.407,0.847773,0.00928788
96.0,0.848799,548.617,569.341,570.883,0.848511,0.010018
99.0,0.84877,548.782,574.821,576.356,0.848532,0.0100311
102.0,0.848578,548.947,580.298,581.826,0.848578,0.0100694
105.0,0.850049,549.112,585.771,587.292,0.850049,0.0115327
108.0,0.849847,549.277,591.241,592.755,0.849847,0.0113232
111.0,0.850111,549.442,596.708,598.215,0.850111,0.0115797
114.0,0.849519,549.607,602.172,603.671,0.850272,0.0117334
117.0,0.850253,549.772,607.632,609.125,0.850172,0.0116261
120.0,0.85014,549.937,613.089,614.575,0.849976,0.011423
123.0,0.849275,550.102,618.543,620.021,0.849444,0.010884
126.0,0.849404,550.267,623.993,625.465,0.849496,0.010929
129.0,0.849726,550.432,629.44,630.905,0.849697,0.0111232
132.0,0.848319,550.597,634.884,636.342,0.848319,0.00973841
135.0,0.848522,550.762,640.325,641.776,0.848522,0.00993474
138.0,0.849472,550.927,645.762,647.206,0.849472,0.0108782
141.0,0.849768,551.092,651.197,652.633,0.849768,0.0111677
144.0,0.850972,551.257,656.627,658.057,0.850972,0.0123653
147.0,0.851949,551.422,662.055,663.478,0.85186,0.013247
150.0,0.85364,551.587,667.48,668.895,0.85364,0.0150209
153.0,0.853975,551.752,672.901,674.309,0.853975,0.0153499
156.0,0.856412,551.917,678.319,679.72,0.856412,0.017781
159.0,0.858786,552.082,683.733,685.128,0.858786,0.0201493
162.0,0.861219,552.247,689.145,690.533,0.861219,0.0225767
165.0,0.864012,552.412,694.553,695.934,0.864012,0.0253644
168.0,0.867403,552.577,699.958,701.332,0.867403,0.0287503
171.0,0.870805,552.742,705.36,706.727,0.870805,0.0321474
174.0,0.875011,552.907,710.758,712.118,0.875011,0.0363488
177.0,0.877658,553.072,716.154,717.507,0.877658,0.0389916
180.0,0.883264,553.237,721.546,722.892,0.883264,0.0445937
183.0,0.890515,553.402,726.935,728.274,0.890515,0.0518412
186.0,0.896074,553.567,732.32,733.652,0.896074,0.0573971
189.0,0.904104,553.732,737.703,739.028,0.904104,0.0654246
192.0,0.91289,553.897,743.082,744.4,0.91289,0.0742087
195.0,0.920678,554.062,748.458,749.769,0.920678,0.0819954
198.0,0.930846,554.227,753.831,755.135,0.930846,0.0921628
201.0,0.942453,554.392,759.201,760.498,0.942453,0.10377
204.0,0.955839,554.557,764.567,765.858,0.955839,0.117156
207.0,0.970609,554.722,769.93,771.214,0.970609,0.131926
210.0,0.98653,554.887,775.29,776.567,0.98653,0.147847
213.0,1.00537,555.052,780.647,781.917,1.00537,0.166687
216.0,1.02499,555.217,786.001,787.264,1.02499,0.186307
219.0,1.04451,555.382,791.352,792.608,1.04451,0.205827
222.0,1.06811,555.546,796.699,797.948,1.06811,0.229427
225.0,1.09321,555.711,802.043,803.285,1.09321,0.254527
228.0,1.11782,555.876,807.384,808.62,1.11782,0.279137
231.0,1.14491,556.041,812.722,813.951,1.14491,0.306227
234.0,1.17291,556.206,818.057,819.278,1.17291,0.334227
237.0,1.19919,556.371,823.388,824.603,1.19919,0.360507
240.0,1.22819,556.536,828.716,829.924,1.22819,0.389507
243.0,1.25581,556.701,834.042,835.243,1.25581,0.417127
246.0,1.28331,556.866,839.364,840.558,1.28331,0.444627
249.0,1.30889,557.031,844.682,845.87,1.30889,0.470207
252.0,1.33323,557.196,849.998,851.179,1.33323,0.494547
255.0,1.3552,557.361,855.311,856.485,1.3552,0.516517
258.0,1.3751,557.526,860.62,861.787,1.3751,0.536417
261.0,1.39375,557.691,865.927,867.087,1.39375,0.555067
264.0,1.41176,557.856,871.23,872.383,1.41176,0.573077
267.0,1.43124,558.021,876.53,877.676,1.43124,0.592557
270.0,1.46457,558.186,881.827,882.966,1.46457,0.625887
273.0,1.48968,558.351,887.12,888.253,1.48968,0.650997
276.0,1.49973,558.516,892.411,893.537,1.49899,0.660307
279.0,1.49409,558.681,897.698,898.818,1.49409,0.655407
282.0,1.47791,558.846,902.983,904.095,1.47791,0.639227
285.0,1.47183,559.011,908.264,909.37,1.47192,0.633237
288.0,1.47217,559.176,913.542,914.641,1.47217,0.633487
291.0,1.47447,559.341,918.817,919.909,1.47447,0.635787
294.0,1.47556,559.506,924.089,925.174,1.47556,0.636877
297.0,1.47652,559.671,929.358,930.436,1.47634,0.637657
300.0,1.47653,559.836,934.624,935.695,1.47644,0.637757
303.0,1.47616,560.001,939.886,940.951,1.47644,0.637757
306.0,1.47707,560.166,945.146,946.204,1.47707,0.638387
309.0,1.4764,560.331,950.402,951.454,1.47677,0.638087
312.0,1.47768,560.496,955.656,956.7,1.47689,0.638207
315.0,1.47696,560.661,960.906,961.944,1.47714,0.638457
318.0,1.47868,560.826,966.153,967.184,1.47855,0.639867
321.0,1.47991,560.991,971.397,972.421,1.47991,0.641227
324.0,1.48199,561.156,976.638,977.655,1.48177,0.643087
327.0,1.48301,561.321,981.876,982.887,1.48301,0.644327
330.0,1.48557,561.486,987.111,988.115,1.48557,0.646887
333.0,1.48616,561.651,992.342,993.34,1.48631,0.647627
336.0,1.49023,561.816,997.571,998.562,1.49023,0.651547
339.0,1.49364,561.981,1002.8,1003.78,1.49364,0.654957
342.0,1.49559,562.146,1008.02,1009,1.49559,0.656907
345.0,1.50167,562.311,1013.24,1014.21,1.50167,0.662987
348.0,1.50659,562.476,1018.45,1019.42,1.50659,0.667907
351.0,1.51555,562.641,1023.67,1024.63,1.51555,0.676867
354.0,1.52435,562.806,1028.88,1029.83,1.52435,0.685667
357.0,1.52832,562.971,1034.09,1035.03,1.52832,0.689637
360.0,1.52944,563.136,1039.29,1040.23,1.52944,0.690757
363.0,1.52597,563.301,1044.49,1045.42,1.52597,0.687287
366.0,1.52684,563.466,1049.69,1050.61,1.52649,0.687807
369.0,1.52676,563.631,1054.88,1055.8,1.52726,0.688577
372.0,1.52865,563.796,1060.08,1060.99,1.52865,0.689967
375.0,1.52919,563.961,1065.27,1066.17,1.52919,0.690507
378.0,1.53183,564.126,1070.45,1071.35,1.53183,0.693147
381.0,1.53332,564.291,1075.63,1076.52,1.53283,0.694147
384.0,1.53321,564.456,1080.81,1081.7,1.53341,0.694727
387.0,1.53574,564.621,1085.99,1086.87,1.53546,0.696777
390.0,1.53704,564.786,1091.16,1092.03,1.53704,0.698357
393.0,1.53803,564.951,1096.34,1097.2,1.53843,0.699747
396.0,1.54222,565.116,1101.5,1102.36,1.54175,0.703067
399.0,1.5438,565.281,1106.67,1107.52,1.5438,0.705117
402.0,1.54344,565.446,1111.83,1112.67,1.54387,0.705187
405.0,1.54363,565.611,1116.99,1117.82,1.54363,0.704947
408.0,1.5444,565.776,1122.14,1122.97,1.5444,0.705717
411.0,1.54657,565.941,1127.3,1128.12,1.54657,0.707887
414.0,1.551,566.106,1132.45,1133.26,1.55048,0.711797
417.0,1.55234,566.271,1137.59,1138.4,1.55234,0.713657
420.0,1.55335,566.436,1142.74,1143.54,1.5528,0.714117
423.0,1.55102,566.601,1147.88,1148.67,1.55102,0.712337
426.0,1.54941,566.766,1153.02,1153.81,1.54989,0.711207
429.0,1.55072,566.931,1158.15,1158.93,1.55072,0.712037
432.0,1.55203,567.096,1163.28,1164.06,1.55203,0.713347
435.0,1.55329,567.261,1168.41,1169.18,1.55289,0.714207
438.0,1.55282,567.426,1173.54,1174.3,1.55296,0.714277
441.0,1.55643,567.591,1178.66,1179.42,1.55643,0.717747
444.0,1.55714,567.756,1183.78,1184.53,1.55714,0.718457
447.0,1.5595,567.921,1188.9,1189.64,1.5595,0.720817
450.0,1.56113,568.086,1194.01,1194.75,1.56109,0.722407
453.0,1.56358,568.251,1199.12,1199.85,1.56358,0.724897
456.0,1.56522,568.416,1204.23,1204.95,1.56522,0.726537
459.0,1.56755,568.58,1209.33,1210.05,1.56757,0.728887
462.0,1.56907,568.745,1214.44,1215.15,1.56907,0.730387
465.0,1.56998,568.91,1219.53,1220.24,1.56973,0.731047
468.0,1.57025,569.075,1224.63,1225.33,1.57025,0.731567
471.0,1.57294,569.24,1229.72,1230.42,1.57254,0.733857
474.0,1.57286,569.405,1234.81,1235.5,1.57286,0.734177
477.0,1.57429,569.57,1239.9,1240.58,1.57429,0.735607
480.0,1.57505,569.735,1244.99,1245.66,1.57505,0.736367
483.0,1.57587,569.9,1250.07,1250.73,1.57616,0.737477
486.0,1.57744,570.065,1255.14,1255.8,1.57704,0.738357
489.0,1.57768,570.23,1260.22,1260.87,1.57768,0.738997
492.0,1.5785,570.395,1265.29,1265.94,1.5785,0.739817
495.0,1.58171,570.56,1270.36,1271,1.58171,0.743027
498.0,1.58276,570.725,1275.43,1276.06,1.58242,0.743737
501.0,1.58251,570.89,1280.49,1281.12,1.58261,0.743927
504.0,1.5858,571.055,1285.55,1286.17,1.5858,0.747117
507.0,1.58856,571.22,1290.61,1291.22,1.58856,0.749877
510.0,1.59139,571.385,1295.67,1296.27,1.59139,0.752707
513.0,1.59975,571.55,1300.72,1301.32,1.59975,0.761067
516.0,1.6094,571.715,1305.77,1306.36,1.6094,0.770717
519.0,1.62562,571.88,1310.81,1311.4,1.62562,0.786937
522.0,1.65243,572.045,1315.86,1316.44,1.65243,0.813747
525.0,1.6692,572.21,1320.9,1321.47,1.66879,0.830107
528.0,1.66605,572.375,1325.94,1326.5,1.66605,0.827367
531.0,1.64384,572.54,1330.97,1331.53,1.64384,0.805157
534.0,1.61716,572.705,1336,1336.56,1.61716,0.778477
537.0,1.60569,572.87,1341.03,1341.58,1.60569,0.767007
540.0,1.60176,573.035,1346.06,1346.6,1.60176,0.763077
543.0,1.60028,573.2,1351.08,1351.61,1.60114,0.762457
546.0,1.6025,573.365,1356.1,1356.63,1.60202,0.763337
549.0,1.60204,573.53,1361.12,1361.64,1.60221,0.763527
552.0,1.60486,573.695,1366.13,1366.65,1.60486,0.766177
555.0,1.60523,573.86,1371.14,1371.65,1.60579,0.767107
558.0,1.61086,574.025,1376.15,1376.65,1.61086,0.772177
561.0,1.61271,574.19,1381.16,1381.65,1.61271,0.774027
564.0,1.61794,574.355,1386.16,1386.65,1.61794,0.779257
567.0,1.62336,574.52,1391.16,1391.64,1.62336,0.784677
570.0,1.6292,574.685,1396.16,1396.63,1.6292,0.790517
573.0,1.63856,574.85,1401.15,1401.62,1.63856,0.799877
576.0,1.64502,575.015,1406.14,1406.61,1.64502,0.806337
579.0,1.6453,575.18,1411.13,1411.59,1.6453,0.806617
582.0,1.63933,575.345,1416.12,1416.57,1.63933,0.800647
585.0,1.63082,575.51,1421.1,1421.54,1.63082,0.792137
588.0,1.62567,575.675,1426.08,1426.52,1.62594,0.787257
591.0,1.62741,575.84,1431.06,1431.49,1.62741,0.788727
594.0,1.62991,576.005,1436.03,1436.46,1.62991,0.791227
597.0,1.63166,576.17,1441,1441.42,1.63148,0.792797
600.0,1.63229,576.335,1445.97,1446.38,1.63278,0.794097
603.0,1.63293,576.5,1450.94,1451.34,1.633,0.794317
606.0,1.63226,576.665,1455.9,1456.3,1.63208,0.793397
609.0,1.63051,576.83,1460.86,1461.25,1.63051,0.791827
612.0,1.6247,576.995,1465.82,1466.2,1.6247,0.786017
615.0,1.62255,577.16,1470.77,1471.15,1.62239,0.783707
618.0,1.62274,577.325,1475.72,1476.1,1.62264,0.783957
621.0,1.62302,577.49,1480.67,1481.04,1.62302,0.784337
624.0,1.62471,577.655,1485.62,1485.98,1.62499,0.786307
627.0,1.6263,577.82,1490.56,1490.91,1.6263,0.787617
630.0,1.63013,577.985,1495.5,1495.85,1.63013,0.791447
633.0,1.63113,578.15,1500.44,1500.78,1.63138,0.792697
636.0,1.63352,578.315,1505.37,1505.71,1.63352,0.794837
639.0,1.63482,578.48,1510.3,1510.63,1.63486,0.796177
642.0,1.6353,578.645,1515.23,1515.55,1.6353,0.796617
645.0,1.63576,578.81,1520.16,1520.47,1.63512,0.796437
648.0,1.63338,578.975,1525.08,1525.39,1.63353,0.794847
651.0,1.63295,579.14,1530,1530.31,1.6334,0.794717
654.0,1.63444,579.305,1534.92,1535.22,1.63419,0.795507
657.0,1.63347,579.47,1539.83,1540.13,1.63347,0.794787
660.0,1.6346,579.635,1544.75,1545.03,1.6346,0.795917
663.0,1.63516,579.8,1549.65,1549.93,1.63516,0.796477
666.0,1.63729,579.965,1554.56,1554.83,1.63729,0.798607
669.0,1.6434,580.13,1559.47,1559.73,1.6434,0.804717
672.0,1.64756,580.295,1564.37,1564.63,1.6469,0.808217
675.0,1.64695,580.46,1569.26,1569.52,1.64676,0.808077
678.0,1.64392,580.625,1574.16,1574.41,1.64392,0.805237
681.0,1.64126,580.79,1579.05,1579.29,1.64126,0.802577
684.0,1.63635,580.955,1583.94,1584.18,1.63635,0.797667
687.0,1.63583,581.12,1588.83,1589.06,1.63583,0.797147
690.0,1.63488,581.285,1593.71,1593.94,1.63488,0.796197
693.0,1.6341,581.45,1598.59,1598.81,1.63411,0.795427
696.0,1.63479,581.614,1603.47,1603.68,1.63477,0.796087
699.0,1.63568,581.779,1608.35,1608.55,1.63522,0.796537
702.0,1.6353,581.944,1613.22,1613.42,1.6353,0.796617
705.0,1.6351,582.109,1618.09,1618.28,1.63537,0.796687
708.0,1.63696,582.274,1622.96,1623.15,1.63692,0.798237
711.0,1.63769,582.439,1627.83,1628,1.63739,0.798707
714.0,1.63686,582.604,1632.69,1632.86,1.63698,0.798297
717.0,1.63652,582.769,1637.55,1637.71,1.63652,0.797837
720.0,1.63389,582.934,1642.4,1642.56,1.63391,0.795227
723.0,1.63536,583.099,1647.26,1647.41,1.63512,0.796437
726.0,1.63604,583.264,1652.11,1652.26,1.63604,0.797357
729.0,1.63655,583.429,1656.96,1657.1,1.63657,0.797887
732.0,1.64012,583.594,1661.8,1661.94,1.64012,0.801437
735.0,1.64177,583.759,1666.65,1666.77,1.64141,0.802727
738.0,1.64072,583.924,1671.49,1671.61,1.64072,0.802037
741.0,1.63871,584.089,1676.32,1676.44,1.63871,0.800027
744.0,1.63706,584.254,1681.16,1681.27,1.63684,0.798157
747.0,1.63554,584.419,1685.99,1686.09,1.63591,0.797227
750.0,1.63523,584.584,1690.82,1690.92,1.63523,0.796547
753.0,1.63472,584.749,1695.65,1695.74,1.63478,0.796097
756.0,1.63601,584.914,1700.47,1700.55,1.63568,0.796997
759.0,1.63544,585.079,1705.29,1705.37,1.63544,0.796757
762.0,1.63488,585.244,1710.11,1710.18,1.63496,0.796277
765.0,1.63457,585.409,1714.92,1714.99,1.63509,0.796407
768.0,1.63743,585.574,1719.74,1719.8,1.63729,0.798607
771.0,1.6367,585.739,1724.55,1724.6,1.63673,0.798047
774.0,1.63683,585.904,1729.35,1729.4,1.63673,0.798047
777.0,1.6366,586.069,1734.16,1734.2,1.63673,0.798047
780.0,1.6357,586.234,1738.96,1739,1.63593,0.797247
783.0,1.63688,586.399,1743.76,1743.79,1.63622,0.797537
786.0,1.63583,586.564,1748.56,1748.58,1.63583,0.797147
789.0,1.63639,586.729,1753.35,1753.37,1.63639,0.797707
792.0,1.63725,586.894,1758.14,1758.15,1.63725,0.798567
795.0,1.63649,587.059,1762.93,1762.94,1.6359,0.797217
798.0,1.63525,587.224,1767.72,1767.72,1.6362,0.797517
801.0,1.63632,587.389,1772.5,1772.49,1.63636,0.797677
804.0,1.63631,587.554,1777.28,1777.27,1.63631,0.797627
807.0,1.63414,587.719,1782.06,1782.04,1.63414,0.795457
810.0,1.63552,587.884,1786.83,1786.81,1.63542,0.796737
813.0,1.63511,588.049,1791.61,1791.57,1.63511,0.796427
816.0,1.6353,588.214,1796.38,1796.34,1.6353,0.796617
819.0,1.63535,588.379,1801.14,1801.1,1.63578,0.797097
822.0,1.63564,588.544,1805.91,1805.86,1.63551,0.796827
825.0,1.63518,588.709,1810.67,1810.61,1.63518,0.796497
828.0,1.6358,588.874,1815.43,1815.37,1.63583,0.797147
831.0,1.63616,589.039,1820.19,1820.12,1.63587,0.797187
834.0,1.63529,589.204,1824.94,1824.86,1.63564,0.796957
837.0,1.63623,589.369,1829.69,1829.61,1.63564,0.796957
840.0,1.63484,589.534,1834.44,1834.35,1.63551,0.796827
843.0,1.63704,589.699,1839.18,1839.09,1.637,0.798317
846.0,1.63671,589.864,1843.93,1843.83,1.637,0.798317
849.0,1.6361,590.029,1848.67,1848.56,1.63673,0.798047
852.0,1.63726,590.194,1853.41,1853.29,1.63669,0.798007
855.0,1.63605,590.359,1858.14,1858.02,1.63669,0.798007
858.0,1.63734,590.524,1862.87,1862.75,1.63734,0.798657
861.0,1.6374,590.689,1867.6,1867.47,1.6374,0.798717
864.0,1.63922,590.854,1872.33,1872.2,1.63864,0.799957
867.0,1.63824,591.019,1877.06,1876.91,1.63824,0.799557
870.0,1.63741,591.184,1881.78,1881.63,1.6378,0.799117
873.0,1.63724,591.349,1886.5,1886.34,1.63724,0.798557
876.0,1.63575,591.514,1891.21,1891.05,1.63573,0.797047
879.0,1.63526,591.679,1895.93,1895.76,1.63573,0.797047
882.0,1.63623,591.844,1900.64,1900.47,1.63623,0.797547
885.0,1.63692,592.009,1905.35,1905.17,1.63659,0.797907
888.0,1.63529,592.174,1910.05,1909.87,1.63562,0.796937
891.0,1.63447,592.339,1914.76,1914.57,1.63447,0.795787
894.0,1.63267,592.504,1919.46,1919.26,1.63354,0.794857
897.0,1.63396,592.669,1924.16,1923.96,1.6336,0.794917
900.0,1.63199,592.834,1928.85,1928.64,1.63199,0.793307
903.0,1.63266,592.999,1933.55,1933.33,1.63266,0.793977
906.0,1.63215,593.164,1938.24,1938.02,1.63215,0.793467
909.0,1.63176,593.329,1942.93,1942.7,1.63156,0.792877
912.0,1.63119,593.494,1947.61,1947.38,1.63119,0.792507
915.0,1.62892,593.659,1952.29,1952.05,1.62892,0.790237
918.0,1.62651,593.824,1956.97,1956.73,1.62718,0.788497
921.0,1.62742,593.989,1961.65,1961.4,1.62718,0.788497
924.0,1.62679,594.154,1966.33,1966.07,1.62679,0.788107
927.0,1.62673,594.319,1971,1970.73,1.62653,0.787847
930.0,1.62546,594.484,1975.67,1975.4,1.62552,0.786837
933.0,1.62389,594.648,1980.33,1980.06,1.62436,0.785677
936.0,1.62363,594.813,1985,1984.72,1.62338,0.784697
939.0,1.62289,594.978,1989.66,1989.37,1.62289,0.784207
942.0,1.62201,595.143,1994.32,1994.03,1.62201,0.783327
945.0,1.62097,595.308,1998.98,1998.68,1.62097,0.782287
948.0,1.62052,595.473,2003.63,2003.33,1.6201,0.781417
951.0,1.61885,595.638,2008.28,2007.97,1.61885,0.780167
954.0,1.61749,595.803,2012.93,2012.62,1.61752,0.778837
957.0,1.61576,595.968,2017.58,2017.26,1.61576,0.777077
960.0,1.61523,596.133,2022.22,2021.89,1.61515,0.776467
963.0,1.61641,596.298,2026.86,2026.53,1.61509,0.776407
966.0,1.61307,596.463,2031.5,2031.16,1.61357,0.774887
969.0,1.61327,596.628,2036.14,2035.79,1.61303,0.774347
972.0,1.61249,596.793,2040.77,2040.42,1.61244,0.773757
975.0,1.61095,596.958,2045.4,2045.05,1.61095,0.772267
978.0,1.60931,597.123,2050.03,2049.67,1.60931,0.770627
981.0,1.60805,597.288,2054.66,2054.29,1.60805,0.769367
984.0,1.60647,597.453,2059.28,2058.91,1.60647,0.767787
987.0,1.60539,597.618,2063.9,2063.52,1.60514,0.766457
990.0,1.60264,597.783,2068.52,2068.13,1.60264,0.763957
993.0,1.60174,597.948,2073.14,2072.74,1.60211,0.763427
996.0,1.60124,598.113,2077.75,2077.35,1.60124,0.762557
999.0,1.59988,598.278,2082.36,2081.95,1.59988,0.761197
1002.0,1.59923,598.443,2086.97,2086.56,1.59906,0.760377
1005.0,1.59567,598.608,2091.57,2091.16,1.59691,0.758227
1008.0,1.59683,598.773,2096.18,2095.75,1.5961,0.757417
1011.0,1.59606,598.938,2100.78,2100.35,1.59503,0.756347
1014.0,1.59388,599.103,2105.38,2104.94,1.59388,0.755197
1017.0,1.59091,599.268,2109.97,2109.53,1.59222,0.753537
1020.0,1.59286,599.433,2114.56,2114.12,1.59211,0.753427
1023.0,1.59045,599.598,2119.15,2118.7,1.59045,0.751767
1026.0,1.58917,599.763,2123.74,2123.28,1.58931,0.750627
1029.0,1.58993,599.928,2128.33,2127.86,1.58972,0.751037
1032.0,1.58852,600.093,2132.91,2132.44,1.58852,0.749837
1035.0,1.58708,600.258,2137.49,2137.01,1.58708,0.748397
1038.0,1.58494,600.423,2142.07,2141.59,1.58584,0.747157
1041.0,1.58533,600.588,2146.64,2146.15,1.58533,0.746647
1044.0,1.58312,600.753,2151.22,2150.72,1.58312,0.744437
1047.0,1.58174,600.918,2155.79,2155.29,1.58153,0.742847
1050.0,1.58055,601.083,2160.35,2159.85,1.58055,0.741867
1053.0,1.57922,601.248,2164.92,2164.41,1.57922,0.740537
1056.0,1.57727,601.413,2169.48,2168.96,1.57745,0.738767
1059.0,1.5772,601.578,2174.04,2173.52,1.5772,0.738517
1062.0,1.57488,601.743,2178.6,2178.07,1.57488,0.736197
1065.0,1.57273,601.908,2183.16,2182.62,1.57273,0.734047
1068.0,1.5729,602.073,2187.71,2187.17,1.57259,0.733907
1071.0,1.57252,602.238,2192.26,2191.71,1.57252,0.733837
1074.0,1.57264,602.403,2196.81,2196.25,1.57264,0.733957
1077.0,1.57045,602.568,2201.35,2200.79,1.57045,0.731767
1080.0,1.56918,602.733,2205.89,2205.33,1.56918,0.730497
1083.0,1.57018,602.898,2210.43,2209.86,1.57009,0.731407
1086.0,1.56897,603.063,2214.97,2214.4,1.56897,0.730287
1089.0,1.56731,603.228,2219.51,2218.92,1.56722,0.728537
1092.0,1.56635,603.393,2224.04,2223.45,1.5667,0.728017
1095.0,1.5658,603.558,2228.57,2227.98,1.56626,0.727577
1098.0,1.56614,603.723,2233.1,2232.5,1.5658,0.727117
1101.0,1.56488,603.888,2237.62,2237.02,1.56488,0.726197
1104.0,1.56355,604.053,2242.15,2241.54,1.56356,0.724877
1107.0,1.56226,604.218,2246.67,2246.05,1.56275,0.724067
1110.0,1.56241,604.383,2251.19,2250.56,1.56241,0.723727
1113.0,1.56204,604.548,2255.7,2255.07,1.56204,0.723357
1116.0,1.56007,604.713,2260.21,2259.58,1.56062,0.721937
1119.0,1.56041,604.878,2264.72,2264.08,1.56041,0.721727
1122.0,1.55715,605.043,2269.23,2268.59,1.55715,0.718467
1125.0,1.55593,605.208,2273.74,2273.09,1.55623,0.717547
1128.0,1.55566,605.373,2278.24,2277.58,1.55566,0.716977
1131.0,1.5541,605.538,2282.74,2282.08,1.5542,0.715517
1134.0,1.55468,605.703,2287.24,2286.57,1.5541,0.715417
1137.0,1.55269,605.868,2291.74,2291.06,1.55321,0.714527
1140.0,1.55252,606.033,2296.23,2295.55,1.55252,0.713837
1143.0,1.55033,606.198,2300.72,2300.03,1.55102,0.712337
1146.0,1.5504,606.363,2305.21,2304.52,1.5504,0.711717
1149.0,1.54861,606.528,2309.7,2309,1.54861,0.709927
1152.0,1.54788,606.693,2314.18,2313.47,1.54776,0.709077
1155.0,1.5476,606.858,2318.66,2317.95,1.54755,0.708867
1158.0,1.54627,607.023,2323.14,2322.42,1.54627,0.707587
1161.0,1.54575,607.188,2327.62,2326.89,1.54575,0.707067
1164.0,1.54466,607.353,2332.09,2331.36,1.54466,0.705977
1167.0,1.54329,607.518,2336.56,2335.83,1.54358,0.704897
1170.0,1.54323,607.682,2341.03,2340.29,1.54295,0.704267
1173.0,1.54269,607.847,2345.5,2344.75,1.54232,0.703637
1176.0,1.54043,608.012,2349.96,2349.21,1.54055,0.701867
1179.0,1.54027,608.177,2354.42,2353.67,1.54036,0.701677
1182.0,1.53956,608.342,2358.88,2358.12,1.53956,0.700877
1185.0,1.53733,608.507,2363.34,2362.57,1.5379,0.699217
1188.0,1.53785,608.672,2367.79,2367.02,1.53785,0.699167
1191.0,1.53583,608.837,2372.25,2371.47,1.53595,0.697267
1194.0,1.53626,609.002,2376.7,2375.91,1.53612,0.697437
1197.0,1.53481,609.167,2381.14,2380.35,1.53481,0.696127
1200.0,1.5327,609.332,2385.59,2384.79,1.53317,0.694487
1203.0,1.53189,609.497,2390.03,2389.23,1.53191,0.693227
1206.0,1.53194,609.662,2394.47,2393.66,1.53127,0.692587
1209.0,1.52904,609.827,2398.91,2398.09,1.52904,0.690357
1212.0,1.52796,609.992,2403.34,2402.52,1.52809,0.689407
1215.0,1.52675,610.157,2407.78,2406.95,1.52675,0.688067
1218.0,1.52548,610.322,2412.21,2411.38,1.52577,0.687087
1221.0,1.52756,610.487,2416.63,2415.8,1.52703,0.688347
1224.0,1.52367,610.652,2421.06,2420.22,1.52367,0.684987
1227.0,1.52212,610.817,2425.48,2424.64,1.52212,0.683437
1230.0,1.52192,610.982,2429.9,2429.05,1.52152,0.682837
1233.0,1.52049,611.147,2434.32,2433.46,1.52049,0.681807
1236.0,1.5185,611.312,2438.74,2437.87,1.5185,0.679817
1239.0,1.51753,611.477,2443.15,2442.28,1.51807,0.679387
1242.0,1.51802,611.642,2447.56,2446.69,1.5178,0.679117
1245.0,1.51533,611.807,2451.97,2451.09,1.51591,0.677227
1248.0,1.51665,611.972,2456.38,2455.49,1.51581,0.677127
1251.0,1.51384,612.137,2460.78,2459.89,1.51384,0.675157
1254.0,1.51299,612.302,2465.19,2464.29,1.5132,0.674517
1257.0,1.51262,612.467,2469.59,2468.68,1.51212,0.673437
1260.0,1.51005,612.632,2473.98,2473.07,1.51005,0.671367
1263.0,1.50835,612.797,2478.38,2477.46,1.50835,0.669667
1266.0,1.50754,612.962,2482.77,2481.85,1.50754,0.668857
1269.0,1.50683,613.127,2487.16,2486.23,1.50697,0.668287
1272.0,1.50484,613.292,2491.55,2490.61,1.50484,0.666157
1275.0,1.50342,613.457,2495.93,2494.99,1.50342,0.664737
1278.0,1.50296,613.622,2500.32,2499.37,1.50288,0.664197
1281.0,1.50162,613.787,2504.7,2503.75,1.50162,0.662937
1284.0,1.50089,613.952,2509.07,2508.12,1.50068,0.661997
1287.0,1.49971,614.117,2513.45,2512.49,1.49971,0.661027
1290.0,1.49704,614.282,2517.82,2516.86,1.49713,0.658447
1293.0,1.49691,614.447,2522.19,2521.22,1.49684,0.658157
1296.0,1.49524,614.612,2526.56,2525.59,1.49524,0.656557
1299.0,1.49217,614.777,2530.93,2529.95,1.49228,0.653597
1302.0,1.49079,614.942,2535.29,2534.3,1.49081,0.652127
1305.0,1.49065,615.107,2539.66,2538.66,1.49023,0.651547
1308.0,1.48748,615.272,2544.02,2543.01,1.48748,0.648797
1311.0,1.4866,615.437,2548.37,2547.37,1.4866,0.647917
1314.0,1.48358,615.602,2552.73,2551.72,1.48358,0.644897
1317.0,1.48228,615.767,2557.08,2556.06,1.48246,0.643777
1320.0,1.48193,615.932,2561.43,2560.41,1.48193,0.643247
1323.0,1.47912,616.097,2565.78,2564.75,1.47912,0.640437
1326.0,1.47797,616.262,2570.12,2569.09,1.47797,0.639287
1329.0,1.47628,616.427,2574.47,2573.43,1.47628,0.637597
1332.0,1.47443,616.592,2578.81,2577.76,1.47443,0.635747
1335.0,1.4731,616.757,2583.15,2582.09,1.4731,0.634417
1338.0,1.47057,616.922,2587.48,2586.42,1.47157,0.632887
1341.0,1.47052,617.087,2591.82,2590.75,1.47118,0.632497
1344.0,1.47202,617.252,2596.15,2595.08,1.47102,0.632337
1347.0,1.46918,617.417,2600.48,2599.4,1.46918,0.630497
1350.0,1.46941,617.582,2604.8,2603.72,1.46897,0.630287
1353.0,1.46721,617.747,2609.13,2608.04,1.46721,0.628527
1356.0,1.46388,617.912,2613.45,2612.36,1.46388,0.625197
1359.0,1.46325,618.077,2617.77,2616.67,1.46325,0.624567
1362.0,1.46071,618.242,2622.09,2620.99,1.46071,0.622027
1365.0,1.45815,618.407,2626.4,2625.3,1.45815,0.619467
1368.0,1.45752,618.572,2630.72,2629.6,1.45752,0.618837
1371.0,1.45479,618.737,2635.03,2633.91,1.45479,0.616107
1374.0,1.4524,618.902,2639.34,2638.21,1.45256,0.613877
1377.0,1.45201,619.067,2643.64,2642.51,1.45201,0.613327
1380.0,1.45,619.232,2647.95,2646.81,1.45,0.611317
1383.0,1.44783,619.397,2652.25,2651.11,1.44783,0.609147
1386.0,1.44746,619.562,2656.55,2655.4,1.44699,0.608307
1389.0,1.44663,619.727,2660.84,2659.69,1.44663,0.607947
1392.0,1.44348,619.892,2665.14,2663.98,1.44348,0.604797
1395.0,1.44343,620.057,2669.43,2668.27,1.44297,0.604287
1398.0,1.44122,620.222,2673.72,2672.55,1.44122,0.602537
1401.0,1.43845,620.387,2678.01,2676.84,1.43857,0.599887
1404.0,1.43838,620.551,2682.29,2681.12,1.43794,0.599257
1407.0,1.43627,620.716,2686.58,2685.39,1.43676,0.598077
1410.0,1.4371,620.881,2690.86,2689.67,1.43676,0.598077
1413.0,1.43421,621.046,2695.14,2693.94,1.43453,0.595847
1416.0,1.43453,621.211,2699.41,2698.21,1.43433,0.595647
1419.0,1.43288,621.376,2703.69,2702.48,1.43288,0.594197
1422.0,1.43013,621.541,2707.96,2706.75,1.43046,0.591777
1425.0,1.4301,621.706,2712.23,2711.01,1.42962,0.590937
1428.0,1.42932,621.871,2716.5,2715.27,1.42932,0.590637
1431.0,1.42925,622.036,2720.76,2719.53,1.42883,0.590147
1434.0,1.42781,622.201,2725.03,2723.79,1.42781,0.589127
1437.0,1.4261,622.366,2729.29,2728.05,1.42655,0.587867
1440.0,1.42508,622.531,2733.54,2732.3,1.42508,0.586397
1443.0,1.42444,622.696,2737.8,2736.55,1.42444,0.585757
1446.0,1.42303,622.861,2742.05,2740.8,1.42303,0.584347
1449.0,1.42009,623.026,2746.31,2745.04,1.42009,0.581407
1452.0,1.41795,623.191,2750.56,2749.29,1.41881,0.580127
1455.0,1.41925,623.356,2754.8,2753.53,1.41842,0.579737
1458.0,1.41571,623.521,2759.05,2757.77,1.41611,0.577427
1461.0,1.41613,623.686,2763.29,2762.01,1.41586,0.577177
1464.0,1.41555,623.851,2767.53,2766.24,1.41516,0.576477
1467.0,1.41173,624.016,2771.77,2770.47,1.41193,0.573247
1470.0,1.41162,624.181,2776,2774.7,1.41151,0.572827
1473.0,1.41109,624.346,2780.24,2778.93,1.41151,0.572827
1476.0,1.40984,624.511,2784.47,2783.16,1.40984,0.571157
1479.0,1.41015,624.676,2788.7,2787.38,1.40934,0.570657
1482.0,1.4081,624.841,2792.93,2791.6,1.4081,0.569417
1485.0,1.40698,625.006,2797.15,2795.82,1.40698,0.568297
1488.0,1.40485,625.171,2801.37,2800.04,1.40539,0.566707
1491.0,1.4054,625.336,2805.59,2804.25,1.40484,0.566157
1494.0,1.40338,625.501,2809.81,2808.47,1.40338,0.564697
1497.0,1.40284,625.666,2814.03,2812.68,1.40284,0.564157
1500.0,1.40097,625.831,2818.24,2816.89,1.40097,0.562287
1503.0,1.40031,625.996,2822.45,2821.09,1.40015,0.561467
1506.0,1.39949,626.161,2826.66,2825.3,1.39949,0.560807
1509.0,1.39788,626.326,2830.87,2829.5,1.39788,0.559197
1512.0,1.3965,626.491,2835.07,2833.7,1.3965,0.557817
1515.0,1.39516,626.656,2839.27,2837.89,1.39508,0.556397
1518.0,1.39393,626.821,2843.48,2842.09,1.39393,0.555247
1521.0,1.39283,626.986,2847.67,2846.28,1.39293,0.554247
1524.0,1.3921,627.151,2851.87,2850.47,1.3921,0.553417
1527.0,1.39066,627.316,2856.06,2854.66,1.39066,0.551977
1530.0,1.38843,627.481,2860.25,2858.85,1.38843,0.549747
1533.0,1.38826,627.646,2864.44,2863.03,1.38826,0.549577
1536.0,1.38884,627.811,2868.63,2867.21,1.38864,0.549957
1539.0,1.38914,627.976,2872.82,2871.39,1.3888,0.550117
1542.0,1.3874,628.141,2877,2875.57,1.38813,0.549447
1545.0,1.38903,628.306,2881.18,2879.74,1.38813,0.549447
1548.0,1.38556,628.471,2885.36,2883.92,1.38556,0.546877
1551.0,1.38399,628.636,2889.53,2888.09,1.38445,0.545767
1554.0,1.38399,628.801,2893.71,2892.26,1.38399,0.545307
1557.0,1.38209,628.966,2897.88,2896.42,1.38221,0.543527
1560.0,1.38204,629.131,2902.05,2900.59,1.38194,0.543257
1563.0,1.37868,629.296,2906.21,2904.75,1.37868,0.539997
1566.0,1.37661,629.461,2910.38,2908.91,1.37661,0.537927
1569.0,1.37378,629.626,2914.54,2913.06,1.37432,0.535637
1572.0,1.3747,629.791,2918.7,2917.22,1.37458,0.535897
1575.0,1.37393,629.956,2922.86,2921.37,1.37393,0.535247
1578.0,1.3722,630.121,2927.02,2925.52,1.3722,0.533517
1581.0,1.37071,630.286,2931.17,2929.67,1.37108,0.532397
1584.0,1.37041,630.451,2935.32,2933.82,1.37031,0.531627
1587.0,1.36853,630.616,2939.47,2937.96,1.36962,0.530937
1590.0,1.37042,630.781,2943.62,2942.11,1.36998,0.531297
1593.0,1.37116,630.946,2947.77,2946.25,1.37122,0.532537
1596.0,1.37502,631.111,2951.91,2950.38,1.37502,0.536337
1599.0,1.38278,631.276,2956.05,2954.52,1.38278,0.544097
1602.0,1.3966,631.441,2960.19,2958.65,1.3966,0.557917
1605.0,1.41347,631.606,2964.33,2962.79,1.41347,0.574787
1608.0,1.42257,631.771,2968.46,2966.92,1.42257,0.583887
1611.0,1.42024,631.936,2972.6,2971.04,1.42024,0.581557
1614.0,1.40579,632.101,2976.73,2975.17,1.40579,0.567107
1617.0,1.38613,632.266,2980.85,2979.29,1.38613,0.547447
1620.0,1.36816,632.431,2984.98,2983.41,1.36816,0.529477
1623.0,1.35493,632.596,2989.1,2987.53,1.35493,0.516247
1626.0,1.35109,632.761,2993.23,2991.65,1.35166,0.512977
1629.0,1.35361,632.926,2997.35,2995.76,1.35361,0.514927
1632.0,1.36049,633.091,3001.46,2999.87,1.36049,0.521807
1635.0,1.36175,633.256,3005.58,3003.98,1.3613,0.522617
1638.0,1.3554,633.421,3009.69,3008.09,1.3554,0.516717
1641.0,1.3442,633.585,3013.8,3012.2,1.3442,0.505517
1644.0,1.33246,633.75,3017.91,3016.3,1.33246,0.493777
1647.0,1.32483,633.915,3022.02,3020.4,1.32483,0.486147
1650.0,1.31875,634.08,3026.12,3024.5,1.31875,0.480067
1653.0,1.31385,634.245,3030.23,3028.6,1.31385,0.475167
1656.0,1.31149,634.41,3034.33,3032.69,1.31149,0.472807
1659.0,1.30844,634.575,3038.42,3036.79,1.30844,0.469757
1662.0,1.30787,634.74,3042.52,3040.88,1.30787,0.469187
1665.0,1.30399,634.905,3046.61,3044.97,1.30426,0.465577
1668.0,1.30213,635.07,3050.71,3049.05,1.30213,0.463447
1671.0,1.29944,635.235,3054.8,3053.14,1.29944,0.460757
1674.0,1.29683,635.4,3058.88,3057.22,1.29683,0.458147
1677.0,1.29338,635.565,3062.97,3061.3,1.29341,0.454727
1680.0,1.29252,635.73,3067.05,3065.38,1.29252,0.453837
1683.0,1.29013,635.895,3071.13,3069.45,1.29013,0.451447
1686.0,1.28758,636.06,3075.21,3073.53,1.28758,0.448897
1689.0,1.28537,636.225,3079.29,3077.6,1.28537,0.446687
1692.0,1.28365,636.39,3083.36,3081.67,1.28365,0.444967
1695.0,1.28221,636.555,3087.44,3085.74,1.28239,0.443707
1698.0,1.28208,636.72,3091.51,3089.8,1.28208,0.443397
1701.0,1.27822,636.885,3095.58,3093.87,1.27822,0.439537
1704.0,1.27623,637.05,3099.64,3097.93,1.27623,0.437547
1707.0,1.27568,637.215,3103.71,3101.99,1.27568,0.436997
1710.0,1.27389,637.38,3107.77,3106.04,1.27389,0.435207
1713.0,1.27115,637.545,3111.83,3110.1,1.27148,0.432797
1716.0,1.27106,637.71,3115.89,3114.15,1.27102,0.432337
1719.0,1.27126,637.875,3119.94,3118.2,1.27091,0.432227
1722.0,1.26973,638.04,3124,3122.25,1.26973,0.431047
1725.0,1.26874,638.205,3128.05,3126.3,1.26874,0.430057
1728.0,1.26762,638.37,3132.1,3130.34,1.26773,0.429047
1731.0,1.26778,638.535,3136.15,3134.38,1.26778,0.429097
1734.0,1.26775,638.7,3140.19,3138.42,1.26697,0.428287
1737.0,1.2664,638.865,3144.24,3142.46,1.2664,0.427717
1740.0,1.2626,639.03,3148.28,3146.5,1.2626,0.423917
1743.0,1.2583,639.195,3152.32,3150.53,1.2583,0.419617
1746.0,1.25628,639.36,3156.35,3154.56,1.25628,0.417597
1749.0,1.25476,639.525,3160.39,3158.59,1.25476,0.416077
1752.0,1.25145,639.69,3164.42,3162.62,1.25145,0.412767
1755.0,1.24851,639.855,3168.45,3166.65,1.24851,0.409827
1758.0,1.24561,640.02,3172.48,3170.67,1.24561,0.406927
1761.0,1.24365,640.185,3176.51,3174.69,1.24365,0.404967
1764.0,1.24068,640.35,3180.53,3178.71,1.24068,0.401997
1767.0,1.23868,640.515,3184.55,3182.73,1.23868,0.399997
1770.0,1.23621,640.68,3188.58,3186.74,1.23621,0.397527
1773.0,1.23378,640.845,3192.59,3190.76,1.23378,0.395097
1776.0,1.23122,641.01,3196.61,3194.77,1.23136,0.392677
1779.0,1.23008,641.175,3200.62,3198.78,1.23008,0.391397
1782.0,1.22788,641.34,3204.64,3202.78,1.2279,0.389217
1785.0,1.22614,641.505,3208.65,3206.79,1.22614,0.387457
1788.0,1.22399,641.67,3212.65,3210.79,1.22399,0.385307
1791.0,1.22117,641.835,3216.66,3214.79,1.22117,0.382487
1794.0,1.22105,642,3220.66,3218.79,1.22043,0.381747
1797.0,1.21701,642.165,3224.67,3222.79,1.21701,0.378327
1800.0,1.21673,642.33,3228.67,3226.78,1.21648,0.377797
1803.0,1.21459,642.495,3232.66,3230.78,1.21459,0.375907
1806.0,1.21249,642.66,3236.66,3234.77,1.21238,0.373697
1809.0,1.21016,642.825,3240.65,3238.76,1.21016,0.371477
1812.0,1.20818,642.99,3244.65,3242.74,1.20818,0.369497
1815.0,1.20667,643.155,3248.64,3246.73,1.20667,0.367987
1818.0,1.20474,643.32,3252.62,3250.71,1.20474,0.366057
1821.0,1.20438,643.485,3256.61,3254.69,1.20411,0.365427
1824.0,1.20018,643.65,3260.59,3258.67,1.20043,0.361747
1827.0,1.19932,643.815,3264.57,3262.64,1.19932,0.360637
1830.0,1.19783,643.98,3268.55,3266.62,1.19783,0.359147
1833.0,1.19606,644.145,3272.53,3270.59,1.19596,0.357277
1836.0,1.19319,644.31,3276.51,3274.56,1.19319,0.354507
1839.0,1.19256,644.475,3280.48,3278.53,1.19246,0.353777
1842.0,1.18982,644.64,3284.45,3282.5,1.18982,0.351137
1845.0,1.18903,644.805,3288.42,3286.46,1.18875,0.350067
1848.0,1.18688,644.97,3292.39,3290.42,1.18688,0.348197
1851.0,1.18523,645.135,3296.35,3294.38,1.18523,0.346547
1854.0,1.1845,645.3,3300.31,3298.34,1.1845,0.345817
1857.0,1.18141,645.465,3304.28,3302.3,1.18141,0.342727
1860.0,1.17964,645.63,3308.23,3306.25,1.17964,0.340957
1863.0,1.17871,645.795,3312.19,3310.2,1.1784,0.339717
1866.0,1.17672,645.96,3316.15,3314.15,1.17672,0.338037
1869.0,1.17585,646.125,3320.1,3318.1,1.17598,0.337297
1872.0,1.1754,646.29,3324.05,3322.05,1.1754,0.336717
1875.0,1.1723,646.455,3328,3325.99,1.17268,0.333997
1878.0,1.17274,646.619,3331.95,3329.93,1.17266,0.333977
1881.0,1.17017,646.784,3335.89,3333.87,1.17017,0.331487
1884.0,1.16814,646.949,3339.83,3337.81,1.16814,0.329457
1887.0,1.16796,647.114,3343.78,3341.74,1.16757,0.328887
1890.0,1.16591,647.279,3347.71,3345.68,1.16591,0.327227
1893.0,1.16525,647.444,3351.65,3349.61,1.16502,0.326337
1896.0,1.16255,647.609,3355.59,3353.54,1.16255,0.323867
1899.0,1.16151,647.774,3359.52,3357.47,1.16151,0.322827
1902.0,1.15969,647.939,3363.45,3361.39,1.15969,0.321007
1905.0,1.15758,648.104,3367.38,3365.32,1.15758,0.318897
1908.0,1.15653,648.269,3371.31,3369.24,1.15653,0.317847
1911.0,1.15541,648.434,3375.23,3373.16,1.15532,0.316637
1914.0,1.15333,648.599,3379.15,3377.08,1.15333,0.314647
1917.0,1.15121,648.764,3383.07,3380.99,1.15121,0.312527
1920.0,1.15144,648.929,3386.99,3384.91,1.15059,0.311907
1923.0,1.14728,649.094,3390.91,3388.82,1.14728,0.308597
1926.0,1.14571,649.259,3394.83,3392.73,1.14623,0.307547
1929.0,1.14686,649.424,3398.74,3396.64,1.14644,0.307757
1932.0,1.14556,649.589,3402.65,3400.54,1.14556,0.306877
1935.0,1.1423,649.754,3406.56,3404.45,1.1423,0.303617
1938.0,1.13921,649.919,3410.47,3408.35,1.13921,0.300527
1941.0,1.13827,650.084,3414.37,3412.25,1.13827,0.299587
1944.0,1.13763,650.249,3418.27,3416.15,1.13763,0.298947
1947.0,1.13578,650.414,3422.17,3420.04,1.13578,0.297097
1950.0,1.13431,650.579,3426.07,3423.94,1.13431,0.295627
1953.0,1.1331,650.744,3429.97,3427.83,1.1331,0.294417
1956.0,1.13165,650.909,3433.87,3431.72,1.13165,0.292967
1959.0,1.13079,651.074,3437.76,3435.61,1.13029,0.291607
1962.0,1.1277,651.239,3441.65,3439.49,1.1277,0.289017
1965.0,1.12614,651.404,3445.54,3443.38,1.12614,0.287457
1968.0,1.12525,651.569,3449.43,3447.26,1.12525,0.286567
1971.0,1.12372,651.734,3453.31,3451.14,1.12372,0.285037
1974.0,1.12247,651.899,3457.2,3455.02,1.12247,0.283787
1977.0,1.12079,652.064,3461.08,3458.89,1.12079,0.282107
1980.0,1.12,652.229,3464.96,3462.77,1.12,0.281317
1983.0,1.11834,652.394,3468.83,3466.64,1.11834,0.279657
1986.0,1.11725,652.559,3472.71,3470.51,1.11725,0.278567
1989.0,1.11553,652.724,3476.58,3474.38,1.11553,0.276847
1992.0,1.1144,652.889,3480.45,3478.25,1.11465,0.275967
1995.0,1.11367,653.054,3484.32,3482.11,1.11367,0.274987
1998.0,1.11178,653.219,3488.19,3485.97,1.11178,0.273097
2001.0,1.11009,653.384,3492.06,3489.83,1.11009,0.271407
2004.0,1.10854,653.549,3495.92,3493.69,1.10854,0.269857
2007.0,1.10786,653.714,3499.78,3497.55,1.10816,0.269477
2010.0,1.1075,653.879,3503.64,3501.4,1.1075,0.268817
2013.0,1.10525,654.044,3507.5,3505.26,1.10525,0.266567
2016.0,1.10262,654.209,3511.36,3509.11,1.10278,0.264097
2019.0,1.1023,654.374,3515.21,3512.96,1.1023,0.263617
2022.0,1.10043,654.539,3519.06,3516.8,1.10077,0.262087
2025.0,1.10023,654.704,3522.91,3520.65,1.10023,0.261547
2028.0,1.09661,654.869,3526.76,3524.49,1.09661,0.257927
2031.0,1.09583,655.034,3530.61,3528.33,1.0957,0.257017
2034.0,1.0947,655.199,3534.45,3532.17,1.09476,0.256077
2037.0,1.093,655.364,3538.29,3536.01,1.093,0.254317
2040.0,1.09231,655.529,3542.13,3539.85,1.09195,0.253267
2043.0,1.0902,655.694,3545.97,3543.68,1.0902,0.251517
2046.0,1.08967,655.859,3549.81,3547.51,1.0893,0.250617
2047.0,1.08972,655.914,3551.09,3548.79,1.08911,0.250427