File: data/processed/processed_data/2024-09-03/2024-09-03_glycinepowder_n_n_y_solid_100_0_5.csv
Pixels #,Intensity (a.u.),Wavelength (nm),Raman shift (cm-1),Raman shift (cm-1) adjusted,Filtered Intensity (a.u.),Baselined Filtered Intensity (a.u.)
0.0,75.2686,543.337,392.223,393.994,75.2565,-0.432552
3.0,75.2721,543.502,397.81,399.573,75.2653,-0.423755
6.0,75.2482,543.667,403.394,405.15,75.2507,-0.438361
9.0,75.2619,543.832,408.974,410.723,75.2526,-0.436471
12.0,75.2497,543.997,414.551,416.293,75.2526,-0.436485
15.0,75.259,544.162,420.125,421.859,75.259,-0.430103
18.0,75.2711,544.327,425.695,427.422,75.2668,-0.422325
21.0,75.2306,544.492,431.261,432.981,75.2482,-0.440951
24.0,75.2701,544.657,436.825,438.537,75.2565,-0.432681
27.0,75.2443,544.822,442.385,444.09,75.2458,-0.443414
30.0,75.237,544.987,447.941,449.64,75.2385,-0.450752
33.0,75.2424,545.152,453.494,455.186,75.2424,-0.446893
36.0,75.2658,545.317,459.044,460.728,75.2613,-0.428039
39.0,75.2453,545.482,464.591,466.268,75.2536,-0.435788
42.0,75.2604,545.647,470.134,471.804,75.2604,-0.429041
45.0,75.2536,545.812,475.674,477.337,75.2536,-0.435899
48.0,75.2482,545.977,481.21,482.866,75.2497,-0.43986
51.0,75.2492,546.142,486.743,488.392,75.2511,-0.438525
54.0,75.2546,546.307,492.273,493.915,75.2604,-0.429293
57.0,75.2663,546.472,497.8,499.434,75.2673,-0.422466
60.0,75.2922,546.637,503.323,504.95,75.2819,-0.407943
63.0,75.2712,546.802,508.843,510.463,75.2809,-0.409023
66.0,75.2921,546.967,514.359,515.972,75.2872,-0.402807
69.0,75.298,547.132,519.872,521.478,75.298,-0.392094
72.0,75.3131,547.297,525.382,526.981,75.3131,-0.377085
75.0,75.3169,547.462,530.888,532.48,75.3169,-0.373379
78.0,75.3146,547.627,536.392,537.976,75.3146,-0.375777
81.0,75.3448,547.792,541.891,543.469,75.3331,-0.357378
84.0,75.3302,547.957,547.388,548.958,75.3341,-0.356482
87.0,75.3478,548.122,552.881,554.444,75.3478,-0.34289
90.0,75.3349,548.287,558.371,559.927,75.3368,-0.354
93.0,75.3502,548.452,563.858,565.407,75.3502,-0.340714
96.0,75.3692,548.617,569.341,570.883,75.3551,-0.33593
99.0,75.3541,548.782,574.821,576.356,75.3541,-0.33705
102.0,75.3433,548.947,580.298,581.826,75.3487,-0.342573
105.0,75.3649,549.112,585.771,587.292,75.359,-0.332398
108.0,75.3263,549.277,591.241,592.755,75.3277,-0.363827
111.0,75.3516,549.442,596.708,598.215,75.3516,-0.340059
114.0,75.3691,549.607,602.172,603.671,75.3646,-0.327194
117.0,75.3589,549.772,607.632,609.125,75.3589,-0.333032
120.0,75.3712,549.937,613.089,614.575,75.3607,-0.331373
123.0,75.3462,550.102,618.543,620.021,75.3607,-0.331517
126.0,75.383,550.267,623.993,625.465,75.3647,-0.327664
129.0,75.3535,550.432,629.44,630.905,75.356,-0.336513
132.0,75.3497,550.597,634.884,636.342,75.3497,-0.342966
135.0,75.3219,550.762,640.325,641.776,75.3326,-0.360222
138.0,75.3636,550.927,645.762,647.206,75.3562,-0.336781
141.0,75.3691,551.092,651.197,652.633,75.3691,-0.324044
144.0,75.3773,551.257,656.627,658.057,75.3729,-0.320409
147.0,75.3556,551.422,662.055,663.478,75.3624,-0.331077
150.0,75.3667,551.587,667.48,668.895,75.3644,-0.329248
153.0,75.3595,551.752,672.901,674.309,75.3569,-0.336922
156.0,75.3477,551.917,678.319,679.72,75.3651,-0.328899
159.0,75.3787,552.082,683.733,685.128,75.3755,-0.318679
162.0,75.3642,552.247,689.145,690.533,75.3744,-0.319961
165.0,75.3795,552.412,694.553,695.934,75.3792,-0.315347
168.0,75.3704,552.577,699.958,701.332,75.3792,-0.315536
171.0,75.4031,552.742,705.36,706.727,75.3946,-0.300327
174.0,75.3857,552.907,710.758,712.118,75.3968,-0.298321
177.0,75.4174,553.072,716.154,717.507,75.4136,-0.281718
180.0,75.4148,553.237,721.546,722.892,75.4071,-0.288418
183.0,75.3975,553.402,726.935,728.274,75.4032,-0.292519
186.0,75.4397,553.567,732.32,733.652,75.4397,-0.256224
189.0,75.4541,553.732,737.703,739.028,75.4541,-0.242031
192.0,75.4697,553.897,743.082,744.4,75.4697,-0.22664
195.0,75.4739,554.062,748.458,749.769,75.4799,-0.216651
198.0,75.474,554.227,753.831,755.135,75.4836,-0.213164
201.0,75.5133,554.392,759.201,760.498,75.5133,-0.183679
204.0,75.535,554.557,764.567,765.858,75.5306,-0.166595
207.0,75.5473,554.722,769.93,771.214,75.5473,-0.150113
210.0,75.5716,554.887,775.29,776.567,75.5691,-0.128533
213.0,75.5914,555.052,780.647,781.917,75.5914,-0.106453
216.0,75.6251,555.217,786.001,787.264,75.6251,-0.0729747
219.0,75.6487,555.382,791.352,792.608,75.6551,-0.0431969
222.0,75.6922,555.546,796.699,797.948,75.6922,-0.00631949
225.0,75.7202,555.711,802.043,803.285,75.7202,0.0214578
228.0,75.748,555.876,807.384,808.62,75.748,0.0490354
231.0,75.7852,556.041,812.722,813.951,75.7852,0.0860133
234.0,75.8402,556.206,818.057,819.278,75.8402,0.140792
237.0,75.8762,556.371,823.388,824.603,75.8762,0.176572
240.0,75.9005,556.536,828.716,829.924,75.9005,0.200654
243.0,75.9536,556.701,834.042,835.243,75.9539,0.253837
246.0,75.9846,556.866,839.364,840.558,75.9846,0.284323
249.0,76.0395,557.031,844.682,845.87,76.0395,0.339011
252.0,76.0556,557.196,849.998,851.179,76.0659,0.365203
255.0,76.1311,557.361,855.311,856.485,76.1256,0.424697
258.0,76.1337,557.526,860.62,861.787,76.1337,0.432594
261.0,76.1677,557.691,865.927,867.087,76.1677,0.466391
264.0,76.2057,557.856,871.23,872.383,76.2007,0.499188
267.0,76.226,558.021,876.53,877.676,76.226,0.524285
270.0,76.2483,558.186,881.827,882.966,76.2553,0.553382
273.0,76.28,558.351,887.12,888.253,76.2678,0.565679
276.0,76.2777,558.516,892.411,893.537,76.2777,0.575376
279.0,76.2709,558.681,897.698,898.818,76.2728,0.570273
282.0,76.2812,558.846,902.983,904.095,76.2728,0.57007
285.0,76.2658,559.011,908.264,909.37,76.2658,0.562867
288.0,76.256,559.176,913.542,914.641,76.2612,0.558064
291.0,76.2858,559.341,918.817,919.909,76.2858,0.582461
294.0,76.298,559.506,924.089,925.174,76.2974,0.593858
297.0,76.2784,559.671,929.358,930.436,76.2757,0.571955
300.0,76.2496,559.836,934.624,935.695,76.2649,0.560953
303.0,76.2713,560.001,939.886,940.951,76.2808,0.57665
306.0,76.3053,560.166,945.146,946.204,76.2866,0.582247
309.0,76.3007,560.331,950.402,951.454,76.3007,0.596144
312.0,76.2979,560.496,955.656,956.7,76.2979,0.593141
315.0,76.2492,560.661,960.906,961.944,76.2511,0.546138
318.0,76.2462,560.826,966.153,967.184,76.251,0.545835
321.0,76.2797,560.991,971.397,972.421,76.2778,0.572432
324.0,76.2732,561.156,976.638,977.655,76.2732,0.567629
327.0,76.269,561.321,981.876,982.887,76.2704,0.564626
330.0,76.2746,561.486,987.111,988.115,76.2765,0.570523
333.0,76.2896,561.651,992.342,993.34,76.2896,0.58342
336.0,76.325,561.816,997.571,998.562,76.3245,0.618117
339.0,76.3263,561.981,1002.8,1003.78,76.3245,0.617914
342.0,76.3135,562.146,1008.02,1009,76.3184,0.611612
345.0,76.3223,562.311,1013.24,1014.21,76.3223,0.615309
348.0,76.3114,562.476,1018.45,1019.42,76.3189,0.611706
351.0,76.3268,562.641,1023.67,1024.63,76.3268,0.619403
354.0,76.3301,562.806,1028.88,1029.83,76.3358,0.6282
357.0,76.3502,562.971,1034.09,1035.03,76.3502,0.642397
360.0,76.3796,563.136,1039.29,1040.23,76.366,0.657994
363.0,76.3382,563.301,1044.49,1045.42,76.3455,0.637291
366.0,76.3471,563.466,1049.69,1050.61,76.3529,0.644488
369.0,76.3639,563.631,1054.88,1055.8,76.357,0.648385
372.0,76.3675,563.796,1060.08,1060.99,76.357,0.648182
375.0,76.3314,563.961,1065.27,1066.17,76.3433,0.634279
378.0,76.3502,564.126,1070.45,1071.35,76.3502,0.640976
381.0,76.3445,564.291,1075.63,1076.52,76.3561,0.646673
384.0,76.3687,564.456,1080.81,1081.7,76.3687,0.659071
387.0,76.3814,564.621,1085.99,1086.87,76.3797,0.669868
390.0,76.3843,564.786,1091.16,1092.03,76.3831,0.673065
393.0,76.3791,564.951,1096.34,1097.2,76.3788,0.668562
396.0,76.3789,565.116,1101.5,1102.36,76.3685,0.658059
399.0,76.3621,565.281,1106.67,1107.52,76.3621,0.651456
402.0,76.3767,565.446,1111.83,1112.67,76.3694,0.658553
405.0,76.3468,565.611,1116.99,1117.82,76.3592,0.64815
408.0,76.39,565.776,1122.14,1122.97,76.377,0.665747
411.0,76.3399,565.941,1127.3,1128.12,76.3598,0.648344
414.0,76.3658,566.106,1132.45,1133.26,76.3529,0.641241
417.0,76.3604,566.271,1137.59,1138.4,76.3604,0.648538
420.0,76.382,566.436,1142.74,1143.54,76.3819,0.669835
423.0,76.3781,566.601,1147.88,1148.67,76.3742,0.661932
426.0,76.3952,566.766,1153.02,1153.81,76.3764,0.663929
429.0,76.3726,566.931,1158.15,1158.93,76.3764,0.663727
432.0,76.4058,567.096,1163.28,1164.06,76.3943,0.681424
435.0,76.3915,567.261,1168.41,1169.18,76.3915,0.678421
438.0,76.3642,567.426,1173.54,1174.3,76.387,0.673718
441.0,76.3948,567.591,1178.66,1179.42,76.387,0.673515
444.0,76.3964,567.756,1183.78,1184.53,76.3964,0.682712
447.0,76.4097,567.921,1188.9,1189.64,76.4117,0.697809
450.0,76.3907,568.086,1194.01,1194.75,76.3907,0.676606
453.0,76.3784,568.251,1199.12,1199.85,76.3839,0.669603
456.0,76.3979,568.416,1204.23,1204.95,76.3979,0.6834
459.0,76.403,568.58,1209.33,1210.05,76.4125,0.697797
462.0,76.4359,568.745,1214.44,1215.15,76.4125,0.697594
465.0,76.3888,568.91,1219.53,1220.24,76.4028,0.687691
468.0,76.4058,569.075,1224.63,1225.33,76.4028,0.687488
471.0,76.3848,569.24,1229.72,1230.42,76.3978,0.682286
474.0,76.4115,569.405,1234.81,1235.5,76.4058,0.690083
477.0,76.4246,569.57,1239.9,1240.58,76.4139,0.69798
480.0,76.4106,569.735,1244.99,1245.66,76.4185,0.702377
483.0,76.4213,569.9,1250.07,1250.73,76.4213,0.704974
486.0,76.4169,570.065,1255.14,1255.8,76.4169,0.700371
489.0,76.4188,570.23,1260.22,1260.87,76.4152,0.698468
492.0,76.4049,570.395,1265.29,1265.94,76.4049,0.687965
495.0,76.4041,570.56,1270.36,1271,76.4131,0.695962
498.0,76.4172,570.725,1275.43,1276.06,76.4131,0.695759
501.0,76.4109,570.89,1280.49,1281.12,76.4113,0.693756
504.0,76.4091,571.055,1285.55,1286.17,76.4091,0.691353
507.0,76.4085,571.22,1290.61,1291.22,76.4085,0.69055
510.0,76.4223,571.385,1295.67,1296.27,76.4396,0.721447
513.0,76.4341,571.55,1300.72,1301.32,76.4423,0.723945
516.0,76.4614,571.715,1305.77,1306.36,76.4558,0.737242
519.0,76.4627,571.88,1310.81,1311.4,76.4646,0.745839
522.0,76.5116,572.045,1315.86,1316.44,76.5101,0.791136
525.0,76.5068,572.21,1320.9,1321.47,76.5182,0.799033
528.0,76.5234,572.375,1325.94,1326.5,76.5182,0.79883
531.0,76.48,572.54,1330.97,1331.53,76.4817,0.762127
534.0,76.4653,572.705,1336,1336.56,76.4725,0.752724
537.0,76.4775,572.87,1341.03,1341.58,76.4725,0.752521
540.0,76.462,573.035,1346.06,1346.6,76.4744,0.754218
543.0,76.4822,573.2,1351.08,1351.61,76.4822,0.761815
546.0,76.5009,573.365,1356.1,1356.63,76.4823,0.761712
549.0,76.4577,573.53,1361.12,1361.64,76.4577,0.736909
552.0,76.4644,573.695,1366.13,1366.65,76.4787,0.757706
555.0,76.4771,573.86,1371.14,1371.65,76.4771,0.755904
558.0,76.4697,574.025,1376.15,1376.65,76.4679,0.746501
561.0,76.4781,574.19,1381.16,1381.65,76.4781,0.756498
564.0,76.4799,574.355,1386.16,1386.65,76.4883,0.766495
567.0,76.4967,574.52,1391.16,1391.64,76.4883,0.766292
570.0,76.4887,574.685,1396.16,1396.63,76.4871,0.764889
573.0,76.5016,574.85,1401.15,1401.62,76.5016,0.779186
576.0,76.5177,575.015,1406.14,1406.61,76.5296,0.806983
579.0,76.5367,575.18,1411.13,1411.59,76.5305,0.80768
582.0,76.4914,575.345,1416.12,1416.57,76.4961,0.773077
585.0,76.5008,575.51,1421.1,1421.54,76.5008,0.777574
588.0,76.4781,575.675,1426.08,1426.52,76.4811,0.757671
591.0,76.5068,575.84,1431.06,1431.49,76.4886,0.764968
594.0,76.4919,576.005,1436.03,1436.46,76.4962,0.772365
597.0,76.5134,576.17,1441,1441.42,76.5081,0.784062
600.0,76.4684,576.335,1445.97,1446.38,76.4891,0.76486
603.0,76.5111,576.5,1450.94,1451.34,76.4912,0.766757
606.0,76.4884,576.665,1455.9,1456.3,76.4955,0.770854
609.0,76.4925,576.83,1460.86,1461.25,76.4925,0.767651
612.0,76.4728,576.995,1465.82,1466.2,76.4866,0.761548
615.0,76.5027,577.16,1470.77,1471.15,76.4749,0.749645
618.0,76.4779,577.325,1475.72,1476.1,76.4779,0.752442
621.0,76.5148,577.49,1480.67,1481.04,76.5116,0.785939
624.0,76.4837,577.655,1485.62,1485.98,76.5022,0.776336
627.0,76.5098,577.82,1490.56,1490.91,76.5061,0.780033
630.0,76.4923,577.985,1495.5,1495.85,76.5055,0.77923
633.0,76.5087,578.15,1500.44,1500.78,76.5071,0.780627
636.0,76.4901,578.315,1505.37,1505.71,76.4942,0.767524
639.0,76.4946,578.48,1510.3,1510.63,76.4933,0.766421
642.0,76.5198,578.645,1515.23,1515.55,76.5022,0.775119
645.0,76.501,578.81,1520.16,1520.47,76.5092,0.781916
648.0,76.498,578.975,1525.08,1525.39,76.498,0.770513
651.0,76.5018,579.14,1530,1530.31,76.5018,0.77411
654.0,76.5238,579.305,1534.92,1535.22,76.5231,0.795207
657.0,76.5052,579.47,1539.83,1540.13,76.5071,0.779004
660.0,76.5085,579.635,1544.75,1545.03,76.5085,0.780201
663.0,76.5186,579.8,1549.65,1549.93,76.5186,0.790098
666.0,76.5099,579.965,1554.56,1554.83,76.5081,0.779395
669.0,76.5076,580.13,1559.47,1559.73,76.5076,0.778692
672.0,76.5118,580.295,1564.37,1564.63,76.5118,0.782689
675.0,76.5359,580.46,1569.26,1569.52,76.511,0.781686
678.0,76.5053,580.625,1574.16,1574.41,76.5231,0.793583
681.0,76.5422,580.79,1579.05,1579.29,76.5375,0.80778
684.0,76.5447,580.955,1583.94,1584.18,76.5375,0.807578
687.0,76.4967,581.12,1588.83,1589.06,76.5179,0.787775
690.0,76.5314,581.285,1593.71,1593.94,76.5196,0.789272
693.0,76.5122,581.45,1598.59,1598.81,76.5189,0.788369
696.0,76.523,581.614,1603.47,1603.68,76.5271,0.796366
699.0,76.5228,581.779,1608.35,1608.55,76.5244,0.793463
702.0,76.53,581.944,1613.22,1613.42,76.526,0.79486
705.0,76.5197,582.109,1618.09,1618.28,76.5303,0.798957
708.0,76.5369,582.274,1622.96,1623.15,76.5364,0.804854
711.0,76.5359,582.439,1627.83,1628,76.5328,0.801051
714.0,76.501,582.604,1632.69,1632.86,76.5234,0.791448
717.0,76.5494,582.769,1637.55,1637.71,76.5301,0.797945
720.0,76.4994,582.934,1642.4,1642.56,76.4994,0.767042
723.0,76.4949,583.099,1647.26,1647.41,76.4951,0.762539
726.0,76.5048,583.264,1652.11,1652.26,76.5035,0.770737
729.0,76.5191,583.429,1656.96,1657.1,76.5163,0.783334
732.0,76.5324,583.594,1661.8,1661.94,76.5266,0.793431
735.0,76.5251,583.759,1666.65,1666.77,76.5266,0.793228
738.0,76.5001,583.924,1671.49,1671.61,76.5129,0.779325
741.0,76.5235,584.089,1676.32,1676.44,76.5129,0.779122
744.0,76.503,584.254,1681.16,1681.27,76.505,0.771019
747.0,76.5,584.419,1685.99,1686.09,76.5,0.765816
750.0,76.4929,584.584,1690.82,1690.92,76.5026,0.768213
753.0,76.5319,584.749,1695.65,1695.74,76.5179,0.78331
756.0,76.5143,584.914,1700.47,1700.55,76.5179,0.783107
759.0,76.5281,585.079,1705.29,1705.37,76.5281,0.793104
762.0,76.5286,585.244,1710.11,1710.18,76.5244,0.789201
765.0,76.5103,585.409,1714.92,1714.99,76.5103,0.774898
768.0,76.5241,585.574,1719.74,1719.8,76.5241,0.788496
771.0,76.5176,585.739,1724.55,1724.6,76.5183,0.782493
774.0,76.5201,585.904,1729.35,1729.4,76.5201,0.78409
777.0,76.5503,586.069,1734.16,1734.2,76.528,0.791787
780.0,76.5183,586.234,1738.96,1739,76.527,0.790584
783.0,76.5209,586.399,1743.76,1743.79,76.5269,0.790281
786.0,76.5489,586.564,1748.56,1748.58,76.5489,0.812078
789.0,76.5616,586.729,1753.35,1753.37,76.5588,0.821775
792.0,76.5384,586.894,1758.14,1758.15,76.5291,0.791872
795.0,76.5255,587.059,1762.93,1762.94,76.5295,0.792069
798.0,76.522,587.224,1767.72,1767.72,76.5274,0.789766
801.0,76.5618,587.389,1772.5,1772.49,76.5387,0.800863
804.0,76.529,587.554,1777.28,1777.27,76.529,0.79096
807.0,76.4927,587.719,1782.06,1782.04,76.4993,0.761057
810.0,76.5412,587.884,1786.83,1786.81,76.5301,0.791654
813.0,76.5052,588.049,1791.61,1791.57,76.512,0.773352
816.0,76.4981,588.214,1796.38,1796.34,76.4978,0.758949
819.0,76.4968,588.379,1801.14,1801.1,76.4978,0.758746
822.0,76.5253,588.544,1805.91,1805.86,76.5173,0.778043
825.0,76.5065,588.709,1810.67,1810.61,76.5158,0.77634
828.0,76.5155,588.874,1815.43,1815.37,76.5158,0.776137
831.0,76.4977,589.039,1820.19,1820.12,76.4977,0.757834
834.0,76.5327,589.204,1824.94,1824.86,76.5327,0.792631
837.0,76.5319,589.369,1829.69,1829.61,76.5323,0.792028
840.0,76.509,589.534,1834.44,1834.35,76.511,0.770525
843.0,76.507,589.699,1839.18,1839.09,76.511,0.770322
846.0,76.532,589.864,1843.93,1843.83,76.532,0.791119
849.0,76.5181,590.029,1848.67,1848.56,76.5302,0.789116
852.0,76.5446,590.194,1853.41,1853.29,76.5446,0.803313
855.0,76.53,590.359,1858.14,1858.02,76.5422,0.800711
858.0,76.545,590.524,1862.87,1862.75,76.5422,0.800508
861.0,76.5313,590.689,1867.6,1867.47,76.5341,0.792205
864.0,76.5227,590.854,1872.33,1872.2,76.5382,0.796102
867.0,76.54,591.019,1877.06,1876.91,76.539,0.796699
870.0,76.4989,591.184,1881.78,1881.63,76.5226,0.780096
873.0,76.5414,591.349,1886.5,1886.34,76.5226,0.779893
876.0,76.5147,591.514,1891.21,1891.05,76.5226,0.77969
879.0,76.5315,591.679,1895.93,1895.76,76.5293,0.786187
882.0,76.5429,591.844,1900.64,1900.47,76.5284,0.785084
885.0,76.4968,592.009,1905.35,1905.17,76.5173,0.773781
888.0,76.5379,592.174,1910.05,1909.87,76.5236,0.779878
891.0,76.5165,592.339,1914.76,1914.57,76.5165,0.772575
894.0,76.5397,592.504,1919.46,1919.26,76.5132,0.769072
897.0,76.514,592.669,1924.16,1923.96,76.5118,0.76747
900.0,76.5027,592.834,1928.85,1928.64,76.5027,0.758167
903.0,76.5268,592.999,1933.55,1933.33,76.5268,0.782064
906.0,76.5,593.164,1938.24,1938.02,76.5,0.755061
909.0,76.4942,593.329,1942.93,1942.7,76.4942,0.749058
912.0,76.51,593.494,1947.61,1947.38,76.5054,0.760055
915.0,76.5002,593.659,1952.29,1952.05,76.4991,0.753552
918.0,76.5046,593.824,1956.97,1956.73,76.5046,0.758849
921.0,76.5313,593.989,1961.65,1961.4,76.5313,0.785346
924.0,76.5028,594.154,1966.33,1966.07,76.5114,0.765243
927.0,76.5009,594.319,1971,1970.73,76.5009,0.75454
930.0,76.512,594.484,1975.67,1975.4,76.512,0.765437
933.0,76.5109,594.648,1980.33,1980.06,76.5109,0.764134
936.0,76.4959,594.813,1985,1984.72,76.491,0.744031
939.0,76.5346,594.978,1989.66,1989.37,76.5268,0.779629
942.0,76.4878,595.143,1994.32,1994.03,76.4963,0.748926
945.0,76.522,595.308,1998.98,1998.68,76.522,0.774423
948.0,76.4994,595.473,2003.63,2003.33,76.4994,0.75162
951.0,76.479,595.638,2008.28,2007.97,76.4931,0.745117
954.0,76.5102,595.803,2012.93,2012.62,76.4935,0.745314
957.0,76.4886,595.968,2017.58,2017.26,76.4886,0.740211
960.0,76.4798,596.133,2022.22,2021.89,76.4798,0.731208
963.0,76.4987,596.298,2026.86,2026.53,76.4924,0.743605
966.0,76.4925,596.463,2031.5,2031.16,76.4924,0.743402
969.0,76.4946,596.628,2036.14,2035.79,76.4946,0.745399
972.0,76.4942,596.793,2040.77,2040.42,76.4942,0.744796
975.0,76.4768,596.958,2045.4,2045.05,76.4768,0.727193
978.0,76.4657,597.123,2050.03,2049.67,76.478,0.72819
981.0,76.4868,597.288,2054.66,2054.29,76.4868,0.736787
984.0,76.4949,597.453,2059.28,2058.91,76.4949,0.744685
987.0,76.4851,597.618,2063.9,2063.52,76.4851,0.734682
990.0,76.4815,597.783,2068.52,2068.13,76.4815,0.730879
993.0,76.4532,597.948,2073.14,2072.74,76.4637,0.712876
996.0,76.478,598.113,2077.75,2077.35,76.4647,0.713673
999.0,76.463,598.278,2082.36,2081.95,76.4639,0.71267
1002.0,76.4605,598.443,2086.97,2086.56,76.4634,0.711967
1005.0,76.4536,598.608,2091.57,2091.16,76.4536,0.701964
1008.0,76.467,598.773,2096.18,2095.75,76.467,0.715161
1011.0,76.4548,598.938,2100.78,2100.35,76.4548,0.702758
1014.0,76.4396,599.103,2105.38,2104.94,76.4393,0.687055
1017.0,76.474,599.268,2109.97,2109.53,76.4689,0.716452
1020.0,76.4741,599.433,2114.56,2114.12,76.465,0.712349
1023.0,76.4584,599.598,2119.15,2118.7,76.4577,0.704846
1026.0,76.4505,599.763,2123.74,2123.28,76.4505,0.697444
1029.0,76.4759,599.928,2128.33,2127.86,76.4727,0.719441
1032.0,76.4638,600.093,2132.91,2132.44,76.4638,0.710338
1035.0,76.4491,600.258,2137.49,2137.01,76.4539,0.700235
1038.0,76.4687,600.423,2142.07,2141.59,76.4667,0.712832
1041.0,76.4653,600.588,2146.64,2146.15,76.4653,0.711229
1044.0,76.4429,600.753,2151.22,2150.72,76.4429,0.688626
1047.0,76.4601,600.918,2155.79,2155.29,76.4546,0.700123
1050.0,76.4489,601.083,2160.35,2159.85,76.4561,0.70142
1053.0,76.4677,601.248,2164.92,2164.41,76.4633,0.708417
1056.0,76.4391,601.413,2169.48,2168.96,76.447,0.691914
1059.0,76.4425,601.578,2174.04,2173.52,76.4425,0.687211
1062.0,76.4193,601.743,2178.6,2178.07,76.4193,0.663808
1065.0,76.4588,601.908,2183.16,2182.62,76.4554,0.699705
1068.0,76.4645,602.073,2187.71,2187.17,76.4433,0.687403
1071.0,76.4074,602.238,2192.26,2191.71,76.4309,0.6748
1074.0,76.4348,602.403,2196.81,2196.25,76.4337,0.677397
1077.0,76.4307,602.568,2201.35,2200.79,76.434,0.677494
1080.0,76.4416,602.733,2205.89,2205.33,76.434,0.677291
1083.0,76.3995,602.898,2210.43,2209.86,76.42,0.663088
1086.0,76.4497,603.063,2214.97,2214.4,76.4497,0.692585
1089.0,76.4385,603.228,2219.51,2218.92,76.4437,0.686382
1092.0,76.4346,603.393,2224.04,2223.45,76.4346,0.677079
1095.0,76.4236,603.558,2228.57,2227.98,76.4331,0.675376
1098.0,76.422,603.723,2233.1,2232.5,76.422,0.664073
1101.0,76.4446,603.888,2237.62,2237.02,76.4356,0.67747
1104.0,76.4359,604.053,2242.15,2241.54,76.4356,0.677267
1107.0,76.4001,604.218,2246.67,2246.05,76.4113,0.652764
1110.0,76.4027,604.383,2251.19,2250.56,76.4113,0.652562
1113.0,76.4404,604.548,2255.7,2255.07,76.4306,0.671659
1116.0,76.4359,604.713,2260.21,2259.58,76.4359,0.676756
1119.0,76.4243,604.878,2264.72,2264.08,76.4243,0.664953
1122.0,76.4255,605.043,2269.23,2268.59,76.4195,0.65995
1125.0,76.4012,605.208,2273.74,2273.09,76.4012,0.641447
1128.0,76.3955,605.373,2278.24,2277.58,76.3962,0.636244
1131.0,76.4204,605.538,2282.74,2282.08,76.4204,0.660241
1134.0,76.4067,605.703,2287.24,2286.57,76.4233,0.662938
1137.0,76.397,605.868,2291.74,2291.06,76.397,0.636435
1140.0,76.3895,606.033,2296.23,2295.55,76.3895,0.628732
1143.0,76.4154,606.198,2300.72,2300.03,76.4073,0.646329
1146.0,76.4148,606.363,2305.21,2304.52,76.4148,0.653626
1149.0,76.4167,606.528,2309.7,2309,76.4167,0.655323
1152.0,76.4013,606.693,2314.18,2313.47,76.4132,0.65162
1155.0,76.4302,606.858,2318.66,2317.95,76.4112,0.649418
1158.0,76.4131,607.023,2323.14,2322.42,76.4131,0.651115
1161.0,76.4125,607.188,2327.62,2326.89,76.4125,0.650312
1164.0,76.364,607.353,2332.09,2331.36,76.3843,0.621909
1167.0,76.41,607.518,2336.56,2335.83,76.3851,0.622506
1170.0,76.3918,607.682,2341.03,2340.29,76.3907,0.627903
1173.0,76.3917,607.847,2345.5,2344.75,76.3917,0.6287
1176.0,76.3774,608.012,2349.96,2349.21,76.3865,0.623297
1179.0,76.4039,608.177,2354.42,2353.67,76.4039,0.640494
1182.0,76.4022,608.342,2358.88,2358.12,76.4022,0.638591
1185.0,76.3763,608.507,2363.34,2362.57,76.3776,0.613788
1188.0,76.3534,608.672,2367.79,2367.02,76.3732,0.609185
1191.0,76.4029,608.837,2372.25,2371.47,76.3774,0.613182
1194.0,76.3883,609.002,2376.7,2375.91,76.3774,0.612979
1197.0,76.3697,609.167,2381.14,2380.35,76.372,0.607377
1200.0,76.3863,609.332,2385.59,2384.79,76.3829,0.618074
1203.0,76.3657,609.497,2390.03,2389.23,76.3741,0.609071
1206.0,76.359,609.662,2394.47,2393.66,76.3741,0.608868
1209.0,76.3992,609.827,2398.91,2398.09,76.3829,0.617465
1212.0,76.3674,609.992,2403.34,2402.52,76.374,0.608362
1215.0,76.3828,610.157,2407.78,2406.95,76.3711,0.605259
1218.0,76.3659,610.322,2412.21,2411.38,76.3705,0.604456
1221.0,76.3787,610.487,2416.63,2415.8,76.3756,0.609353
1224.0,76.3546,610.652,2421.06,2420.22,76.3589,0.59245
1227.0,76.347,610.817,2425.48,2424.64,76.3548,0.588147
1230.0,76.3535,610.982,2429.9,2429.05,76.3535,0.586644
1233.0,76.3491,611.147,2434.32,2433.46,76.3491,0.582041
1236.0,76.3772,611.312,2438.74,2437.87,76.3712,0.603938
1239.0,76.3456,611.477,2443.15,2442.28,76.3456,0.578136
1242.0,76.3503,611.642,2447.56,2446.69,76.3418,0.574133
1245.0,76.3192,611.807,2451.97,2451.09,76.3356,0.56773
1248.0,76.3507,611.972,2456.38,2455.49,76.3362,0.568127
1251.0,76.3423,612.137,2460.78,2459.89,76.3423,0.574024
1254.0,76.3432,612.302,2465.19,2464.29,76.3432,0.574721
1257.0,76.3409,612.467,2469.59,2468.68,76.3409,0.572218
1260.0,76.3502,612.632,2473.98,2473.07,76.3424,0.573515
1263.0,76.3261,612.797,2478.38,2477.46,76.3333,0.564212
1266.0,76.3392,612.962,2482.77,2481.85,76.3392,0.569909
1269.0,76.3211,613.127,2487.16,2486.23,76.3284,0.558906
1272.0,76.3311,613.292,2491.55,2490.61,76.3313,0.561603
1275.0,76.3427,613.457,2495.93,2494.99,76.3427,0.5728
1278.0,76.3182,613.622,2500.32,2499.37,76.3248,0.554697
1281.0,76.3053,613.787,2504.7,2503.75,76.3028,0.532495
1284.0,76.2896,613.952,2509.07,2508.12,76.2994,0.528892
1287.0,76.3358,614.117,2513.45,2512.49,76.3236,0.552889
1290.0,76.3228,614.282,2517.82,2516.86,76.3167,0.545786
1293.0,76.3331,614.447,2522.19,2521.22,76.3257,0.554583
1296.0,76.3086,614.612,2526.56,2525.59,76.3227,0.55138
1299.0,76.3192,614.777,2530.93,2529.95,76.3227,0.551177
1302.0,76.3051,614.942,2535.29,2534.3,76.3053,0.533574
1305.0,76.3135,615.107,2539.66,2538.66,76.3053,0.533371
1308.0,76.3117,615.272,2544.02,2543.01,76.317,0.544868
1311.0,76.2959,615.437,2548.37,2547.37,76.301,0.528665
1314.0,76.297,615.602,2552.73,2551.72,76.297,0.524462
1317.0,76.3017,615.767,2557.08,2556.06,76.3017,0.528959
1320.0,76.315,615.932,2561.43,2560.41,76.315,0.542056
1323.0,76.2911,616.097,2565.78,2564.75,76.2911,0.517954
1326.0,76.2841,616.262,2570.12,2569.09,76.2866,0.513251
1329.0,76.3013,616.427,2574.47,2573.43,76.2973,0.523748
1332.0,76.2867,616.592,2578.81,2577.76,76.2867,0.512945
1335.0,76.2866,616.757,2583.15,2582.09,76.2866,0.512642
1338.0,76.2862,616.922,2587.48,2586.42,76.2863,0.512139
1341.0,76.2697,617.087,2591.82,2590.75,76.2807,0.506336
1344.0,76.2833,617.252,2596.15,2595.08,76.2816,0.507033
1347.0,76.2621,617.417,2600.48,2599.4,76.2621,0.48733
1350.0,76.252,617.582,2604.8,2603.72,76.2585,0.483527
1353.0,76.2669,617.747,2609.13,2608.04,76.2657,0.490524
1356.0,76.2701,617.912,2613.45,2612.36,76.2701,0.494721
1359.0,76.2588,618.077,2617.77,2616.67,76.2651,0.489518
1362.0,76.2685,618.242,2622.09,2620.99,76.2685,0.492715
1365.0,76.2534,618.407,2626.4,2625.3,76.2534,0.477412
1368.0,76.248,618.572,2630.72,2629.6,76.2456,0.46941
1371.0,76.2292,618.737,2635.03,2633.91,76.2313,0.454907
1374.0,76.2106,618.902,2639.34,2638.21,76.2223,0.445704
1377.0,76.2575,619.067,2643.64,2642.51,76.2411,0.464301
1380.0,76.2301,619.232,2647.95,2646.81,76.2331,0.456098
1383.0,76.2449,619.397,2652.25,2651.11,76.2449,0.467695
1386.0,76.2433,619.562,2656.55,2655.4,76.2433,0.465892
1389.0,76.2475,619.727,2660.84,2659.69,76.2337,0.456089
1392.0,76.2294,619.892,2665.14,2663.98,76.2314,0.453586
1395.0,76.2303,620.057,2669.43,2668.27,76.2303,0.452283
1398.0,76.2307,620.222,2673.72,2672.55,76.2307,0.45248
1401.0,76.2264,620.387,2678.01,2676.84,76.2301,0.451677
1404.0,76.2467,620.551,2682.29,2681.12,76.2321,0.453474
1407.0,76.2004,620.716,2686.58,2685.39,76.2114,0.432571
1410.0,76.2176,620.881,2690.86,2689.67,76.2152,0.436169
1413.0,76.2324,621.046,2695.14,2693.94,76.2324,0.453166
1416.0,76.2144,621.211,2699.41,2698.21,76.2144,0.434963
1419.0,76.2007,621.376,2703.69,2702.48,76.2095,0.42986
1422.0,76.2248,621.541,2707.96,2706.75,76.2179,0.438057
1425.0,76.1902,621.706,2712.23,2711.01,76.1989,0.418854
1428.0,76.193,621.871,2716.5,2715.27,76.193,0.412751
1431.0,76.2029,622.036,2720.76,2719.53,76.2029,0.422448
1434.0,76.2067,622.201,2725.03,2723.79,76.204,0.423345
1437.0,76.2241,622.366,2729.29,2728.05,76.2145,0.433642
1440.0,76.1881,622.531,2733.54,2732.3,76.2006,0.419539
1443.0,76.2172,622.696,2737.8,2736.55,76.2096,0.428336
1446.0,76.205,622.861,2742.05,2740.8,76.207,0.425533
1449.0,76.215,623.026,2746.31,2745.04,76.207,0.42533
1452.0,76.1741,623.191,2750.56,2749.29,76.1873,0.405428
1455.0,76.1903,623.356,2754.8,2753.53,76.1932,0.411125
1458.0,76.1946,623.521,2759.05,2757.77,76.1946,0.412322
1461.0,76.1939,623.686,2763.29,2762.01,76.1946,0.412119
1464.0,76.2141,623.851,2767.53,2766.24,76.1996,0.416916
1467.0,76.1733,624.016,2771.77,2770.47,76.182,0.399113
1470.0,76.1897,624.181,2776,2774.7,76.1897,0.40661
1473.0,76.1921,624.346,2780.24,2778.93,76.191,0.407707
1476.0,76.1889,624.511,2784.47,2783.16,76.1872,0.403704
1479.0,76.1692,624.676,2788.7,2787.38,76.1737,0.390001
1482.0,76.1718,624.841,2792.93,2791.6,76.1718,0.387898
1485.0,76.183,625.006,2797.15,2795.82,76.1695,0.385395
1488.0,76.1619,625.171,2801.37,2800.04,76.1619,0.377592
1491.0,76.1667,625.336,2805.59,2804.25,76.1562,0.37169
1494.0,76.1262,625.501,2809.81,2808.47,76.1524,0.367689
1497.0,76.1744,625.666,2814.03,2812.68,76.1723,0.387392
1500.0,76.1736,625.831,2818.24,2816.89,76.1723,0.387194
1503.0,76.1555,625.996,2822.45,2821.09,76.1545,0.369197
1506.0,76.1447,626.161,2826.66,2825.3,76.1479,0.362401
1509.0,76.1569,626.326,2830.87,2829.5,76.1558,0.370109
1512.0,76.1618,626.491,2835.07,2833.7,76.1576,0.371717
1515.0,76.1495,626.656,2839.27,2837.89,76.1495,0.363426
1518.0,76.1528,626.821,2843.48,2842.09,76.149,0.362737
1521.0,76.151,626.986,2847.67,2846.28,76.1603,0.373851
1524.0,76.1603,627.151,2851.87,2850.47,76.1603,0.373667
1527.0,76.1576,627.316,2856.06,2854.66,76.1516,0.364783
1530.0,76.1363,627.481,2860.25,2858.85,76.148,0.361002
1533.0,76.1452,627.646,2864.44,2863.03,76.1377,0.350524
1536.0,76.1374,627.811,2868.63,2867.21,76.1374,0.350049
1539.0,76.1633,627.976,2872.82,2871.39,76.1502,0.362677
1542.0,76.1464,628.141,2877,2875.57,76.1493,0.361606
1545.0,76.148,628.306,2881.18,2879.74,76.1509,0.363038
1548.0,76.1364,628.471,2885.36,2883.92,76.1385,0.350472
1551.0,76.1128,628.636,2889.53,2888.09,76.1385,0.350308
1554.0,76.1608,628.801,2893.71,2892.26,76.1608,0.372446
1557.0,76.1559,628.966,2897.88,2896.42,76.1559,0.367385
1560.0,76.1155,629.131,2902.05,2900.59,76.1282,0.339525
1563.0,76.1408,629.296,2906.21,2904.75,76.1393,0.350467
1566.0,76.1322,629.461,2910.38,2908.91,76.1322,0.343213
1569.0,76.1053,629.626,2914.54,2913.06,76.122,0.332862
1572.0,76.1471,629.791,2918.7,2917.22,76.1351,0.345814
1575.0,76.1466,629.956,2922.86,2921.37,76.1282,0.338769
1578.0,76.1042,630.121,2927.02,2925.52,76.1052,0.315627
1581.0,76.1024,630.286,2931.17,2929.67,76.1156,0.325888
1584.0,76.1129,630.451,2935.32,2933.82,76.1129,0.323052
1587.0,76.1066,630.616,2939.47,2937.96,76.1089,0.318919
1590.0,76.1279,630.781,2943.62,2942.11,76.1158,0.325689
1593.0,76.0876,630.946,2947.77,2946.25,76.1049,0.314662
1596.0,76.1198,631.111,2951.91,2950.38,76.1198,0.329437
1599.0,76.156,631.276,2956.05,2954.52,76.137,0.346515
1602.0,76.1175,631.441,2960.19,2958.65,76.137,0.346396
1605.0,76.1704,631.606,2964.33,2962.79,76.1664,0.375678
1608.0,76.1689,631.771,2968.46,2966.92,76.1689,0.378061
1611.0,76.1794,631.936,2972.6,2971.04,76.1782,0.387243
1614.0,76.1616,632.101,2976.73,2975.17,76.1602,0.369126
1617.0,76.0986,632.266,2980.85,2979.29,76.1059,0.314709
1620.0,76.1082,632.431,2984.98,2983.41,76.1082,0.316896
1623.0,76.0887,632.596,2989.1,2987.53,76.0887,0.297285
1626.0,76.0662,632.761,2993.23,2991.65,76.0662,0.274677
1629.0,76.0588,632.926,2997.35,2995.76,76.0627,0.271071
1632.0,76.0892,633.091,3001.46,2999.87,76.0834,0.291668
1635.0,76.1038,633.256,3005.58,3003.98,76.0819,0.290068
1638.0,76.0701,633.421,3009.69,3008.09,76.0766,0.28467
1641.0,76.0707,633.585,3013.8,3012.2,76.0719,0.279874
1644.0,76.0753,633.75,3017.91,3016.3,76.0613,0.269182
1647.0,76.0552,633.915,3022.02,3020.4,76.0578,0.265591
1650.0,76.0131,634.08,3026.12,3024.5,76.0164,0.224103
1653.0,76.0213,634.245,3030.23,3028.6,76.0213,0.228918
1656.0,76.044,634.41,3034.33,3032.69,76.044,0.251534
1659.0,76.0404,634.575,3038.42,3036.79,76.0404,0.247852
1662.0,76.0539,634.74,3042.52,3040.88,76.0487,0.256073
1665.0,76.0381,634.905,3046.61,3044.97,76.0381,0.245396
1668.0,76.0246,635.07,3050.71,3049.05,76.0289,0.236121
1671.0,76.0478,635.235,3054.8,3053.14,76.0295,0.236649
1674.0,76.0106,635.4,3058.88,3057.22,76.0279,0.234978
1677.0,76.0259,635.565,3062.97,3061.3,76.0279,0.23491
1680.0,76.0288,635.73,3067.05,3065.38,76.0285,0.235444
1683.0,76.0223,635.895,3071.13,3069.45,76.0146,0.221479
1686.0,76.0046,636.06,3075.21,3073.53,76.0046,0.211417
1689.0,75.9973,636.225,3079.29,3077.6,76.0027,0.209457
1692.0,76.0203,636.39,3083.36,3081.67,76.0143,0.220999
1695.0,75.9802,636.555,3087.44,3085.74,75.9837,0.190342
1698.0,75.9839,636.72,3091.51,3089.8,75.9839,0.190488
1701.0,75.985,636.885,3095.58,3093.87,75.985,0.191535
1704.0,75.9871,637.05,3099.64,3097.93,75.9821,0.188583
1707.0,75.9913,637.215,3103.71,3101.99,75.9913,0.197734
1710.0,75.9799,637.38,3107.77,3106.04,75.9937,0.200086
1713.0,75.9648,637.545,3111.83,3110.1,75.9725,0.17884
1716.0,75.9674,637.71,3115.89,3114.15,75.9674,0.173695
1719.0,75.9784,637.875,3119.94,3118.2,75.9668,0.173053
1722.0,75.966,638.04,3124,3122.25,75.9668,0.173011
1725.0,75.972,638.205,3128.05,3126.3,75.9787,0.184872
1728.0,75.9654,638.37,3132.1,3130.34,75.9654,0.171533
1731.0,75.9133,638.535,3136.15,3134.38,75.9419,0.147997
1734.0,75.9587,638.7,3140.19,3138.42,75.9622,0.168261
1737.0,75.973,638.865,3144.24,3142.46,75.973,0.179028
1740.0,75.967,639.03,3148.28,3146.5,75.967,0.172995
1743.0,75.9438,639.195,3152.32,3150.53,75.9583,0.164265
1746.0,75.9642,639.36,3156.35,3154.56,75.9619,0.167836
1749.0,75.9709,639.525,3160.39,3158.59,75.9709,0.176808
1752.0,75.9693,639.69,3164.42,3162.62,75.9693,0.175182
1755.0,75.9628,639.855,3168.45,3166.65,75.9628,0.168657
1758.0,75.9388,640.02,3172.48,3170.67,75.9418,0.147634
1761.0,75.9285,640.185,3176.51,3174.69,75.9285,0.134312
1764.0,75.9455,640.35,3180.53,3178.71,75.9455,0.151292
1767.0,75.9455,640.515,3184.55,3182.73,75.9455,0.151273
1770.0,75.925,640.68,3188.58,3186.74,75.925,0.130755
1773.0,75.8907,640.845,3192.59,3190.76,75.903,0.108738
1776.0,75.9127,641.01,3196.61,3194.77,75.9127,0.118423
1779.0,75.9322,641.175,3200.62,3198.78,75.9265,0.132208
1782.0,75.9415,641.34,3204.64,3202.78,75.9244,0.130094
1785.0,75.8924,641.505,3208.65,3206.79,75.8969,0.102582
1788.0,75.8755,641.67,3212.65,3210.79,75.8969,0.102571
1791.0,75.9175,641.835,3216.66,3214.79,75.9062,0.111861
1794.0,75.9333,642,3220.66,3218.79,75.9211,0.126751
1797.0,75.9128,642.165,3224.67,3222.79,75.9207,0.126343
1800.0,75.8891,642.33,3228.67,3226.78,75.8891,0.0947361
1803.0,75.8887,642.495,3232.66,3230.78,75.8887,0.0943299
1806.0,75.9345,642.66,3236.66,3234.77,75.9067,0.112325
1809.0,75.8614,642.825,3240.65,3238.76,75.8892,0.0948204
1812.0,75.8983,642.99,3244.65,3242.74,75.8983,0.103917
1815.0,75.9211,643.155,3248.64,3246.73,75.9045,0.110114
1818.0,75.8884,643.32,3252.62,3250.71,75.8922,0.097813
1821.0,75.8945,643.485,3256.61,3254.69,75.8906,0.0962124
1824.0,75.8539,643.65,3260.59,3258.67,75.8658,0.0714127
1827.0,75.8732,643.815,3264.57,3262.64,75.8732,0.0788135
1830.0,75.8678,643.98,3268.55,3266.62,75.8706,0.076215
1833.0,75.8859,644.145,3272.53,3270.59,75.8859,0.0915173
1836.0,75.8591,644.31,3276.51,3274.56,75.8591,0.0647203
1839.0,75.8572,644.475,3280.48,3278.53,75.8572,0.0628239
1842.0,75.877,644.64,3284.45,3282.5,75.867,0.0726282
1845.0,75.8711,644.805,3288.42,3286.46,75.8656,0.0712331
1848.0,75.848,644.97,3292.39,3290.42,75.8618,0.0674386
1851.0,75.862,645.135,3296.35,3294.38,75.853,0.0586447
1854.0,75.852,645.3,3300.31,3298.34,75.853,0.0586514
1857.0,75.8665,645.465,3304.28,3302.3,75.8648,0.0704586
1860.0,75.8339,645.63,3308.23,3306.25,75.8274,0.0330664
1863.0,75.8378,645.795,3312.19,3310.2,75.8305,0.0361745
1866.0,75.819,645.96,3316.15,3314.15,75.819,0.024683
1869.0,75.8265,646.125,3320.1,3318.1,75.8265,0.0321916
1872.0,75.8357,646.29,3324.05,3322.05,75.8379,0.0436006
1875.0,75.8443,646.455,3328,3325.99,75.8368,0.04251
1878.0,75.839,646.619,3331.95,3329.93,75.8368,0.0425198
1881.0,75.8262,646.784,3335.89,3333.87,75.834,0.0397299
1884.0,75.8474,646.949,3339.83,3337.81,75.8291,0.0348404
1887.0,75.8166,647.114,3343.78,3341.74,75.8181,0.0238512
1890.0,75.8182,647.279,3347.71,3345.68,75.8182,0.0239622
1893.0,75.8308,647.444,3351.65,3349.61,75.8308,0.0365736
1896.0,75.8178,647.609,3355.59,3353.54,75.8248,0.0305852
1899.0,75.8369,647.774,3359.52,3357.47,75.8369,0.0426971
1902.0,75.8383,647.939,3363.45,3361.39,75.8427,0.0485094
1905.0,75.8376,648.104,3367.38,3365.32,75.8374,0.0432221
1908.0,75.7977,648.269,3371.31,3369.24,75.8001,0.00593512
1911.0,75.8099,648.434,3375.23,3373.16,75.8099,0.0157482
1914.0,75.7933,648.599,3379.15,3377.08,75.8042,0.0100614
1917.0,75.8256,648.764,3383.07,3380.99,75.8253,0.0311747
1920.0,75.8379,648.929,3386.99,3384.91,75.8367,0.0425882
1923.0,75.8122,649.094,3390.91,3388.82,75.8133,0.0192021
1926.0,75.8043,649.259,3394.83,3392.73,75.8043,0.0102162
1929.0,75.7963,649.424,3398.74,3396.64,75.8024,0.0083304
1932.0,75.8135,649.589,3402.65,3400.54,75.8135,0.0194447
1935.0,75.8007,649.754,3406.56,3404.45,75.7949,0.000859052
1938.0,75.7833,649.919,3410.47,3408.35,75.7917,-0.00232654
1941.0,75.8003,650.084,3414.37,3412.25,75.7863,-0.00771218
1944.0,75.7894,650.249,3418.27,3416.15,75.7842,-0.00979782
1947.0,75.7983,650.414,3422.17,3420.04,75.7985,0.00451648
1950.0,75.782,650.579,3426.07,3423.94,75.782,-0.0119692
1953.0,75.7733,650.744,3429.97,3427.83,75.7733,-0.020655
1956.0,75.7966,650.909,3433.87,3431.72,75.7966,0.00265915
1959.0,75.7671,651.074,3437.76,3435.61,75.7671,-0.0268267
1962.0,75.7598,651.239,3441.65,3439.49,75.7598,-0.0341127
1965.0,75.8023,651.404,3445.54,3443.38,75.7826,-0.0112989
1968.0,75.7636,651.569,3449.43,3447.26,75.7749,-0.0189853
1971.0,75.7779,651.734,3453.31,3451.14,75.7769,-0.0169719
1974.0,75.7602,651.899,3457.2,3455.02,75.7602,-0.0336586
1977.0,75.7753,652.064,3461.08,3458.89,75.7576,-0.0362456
1980.0,75.7449,652.229,3464.96,3462.77,75.7521,-0.0417329
1983.0,75.7403,652.394,3468.83,3466.64,75.7452,-0.0486206
1986.0,75.7599,652.559,3472.71,3470.51,75.7452,-0.0486087
1989.0,75.7479,652.724,3476.58,3474.38,75.7505,-0.0432972
1992.0,75.762,652.889,3480.45,3478.25,75.7576,-0.0361861
1995.0,75.7474,653.054,3484.32,3482.11,75.7474,-0.0463754
1998.0,75.7423,653.219,3488.19,3485.97,75.7423,-0.051465
2001.0,75.7092,653.384,3492.06,3489.83,75.7249,-0.0688551
2004.0,75.739,653.549,3495.92,3493.69,75.7366,-0.0571459
2007.0,75.7358,653.714,3499.78,3497.55,75.7381,-0.0556372
2010.0,75.7452,653.879,3503.64,3501.4,75.7452,-0.048529
2013.0,75.7446,654.044,3507.5,3505.26,75.7204,-0.0733211
2016.0,75.7086,654.209,3511.36,3509.11,75.7204,-0.0733139
2019.0,75.7406,654.374,3515.21,3512.96,75.7381,-0.0556073
2022.0,75.7279,654.539,3519.06,3516.8,75.7322,-0.0615013
2025.0,75.7366,654.704,3522.91,3520.65,75.7312,-0.0624958
2028.0,75.7033,654.869,3526.76,3524.49,75.7077,-0.0859908
2031.0,75.7099,655.034,3530.61,3528.33,75.7099,-0.0837867
2034.0,75.7176,655.199,3534.45,3532.17,75.7177,-0.0759833
2037.0,75.7125,655.364,3538.29,3536.01,75.7125,-0.0811805
2040.0,75.7328,655.529,3542.13,3539.85,75.7328,-0.0608785
2043.0,75.7226,655.694,3545.97,3543.68,75.7226,-0.0710771
2046.0,75.7036,655.859,3549.81,3547.51,75.7036,-0.0900763
2047.0,75.7017,655.914,3551.09,3548.79,75.7017,-0.0919762