File: data/processed/processed_data/2024-09-03/2024-09-03_aluminumfoil1cmaway_n_n_y_solid_1000_0_5.csv
Pixels #,Intensity (a.u.),Wavelength (nm),Raman shift (cm-1),Raman shift (cm-1) adjusted,Filtered Intensity (a.u.),Baselined Filtered Intensity (a.u.)
0.0,7.54591,543.337,392.223,393.994,7.54531,0.000155252
3.0,7.54361,543.502,397.81,399.573,7.54443,-0.000724744
6.0,7.54467,543.667,403.394,405.15,7.54467,-0.000484745
9.0,7.54625,543.832,408.974,410.723,7.54553,0.00037525
12.0,7.54436,543.997,414.551,416.293,7.54436,-0.000794751
15.0,7.54438,544.162,420.125,421.859,7.54442,-0.000734762
18.0,7.5471,544.327,425.695,427.422,7.54647,0.00131522
21.0,7.54359,544.492,431.261,432.981,7.54381,-0.00134478
24.0,7.54601,544.657,436.825,438.537,7.54547,0.000315216
27.0,7.54487,544.822,442.385,444.09,7.54579,0.00063521
30.0,7.54629,544.987,447.941,449.64,7.54613,0.000975206
33.0,7.54772,545.152,453.494,455.186,7.54762,0.00246521
36.0,7.54673,545.317,459.044,460.728,7.54643,0.00127524
39.0,7.5452,545.482,464.591,466.268,7.54478,-0.000374724
42.0,7.54351,545.647,470.134,471.804,7.54418,-0.000974689
45.0,7.54638,545.812,475.674,477.337,7.54572,0.000565335
48.0,7.54549,545.977,481.21,482.866,7.54549,0.000335365
51.0,7.54184,546.142,486.743,488.392,7.54377,-0.0013846
54.0,7.54645,546.307,492.273,493.915,7.5452,4.54108e-05
57.0,7.54429,546.472,497.8,499.434,7.54507,-8.45721e-05
60.0,7.54625,546.637,503.323,504.95,7.54504,-0.000114558
63.0,7.54314,546.802,508.843,510.463,7.54332,-0.00183454
66.0,7.54235,546.967,514.359,515.972,7.54295,-0.00220455
69.0,7.54406,547.132,519.872,521.478,7.54406,-0.00109457
72.0,7.54628,547.297,525.382,526.981,7.54527,0.000115394
75.0,7.54357,547.462,530.888,532.48,7.54357,-0.00158464
78.0,7.54235,547.627,536.392,537.976,7.54305,-0.00210468
81.0,7.54861,547.792,541.891,543.469,7.54558,0.000425261
84.0,7.54543,547.957,547.388,548.958,7.54558,0.000425217
87.0,7.54617,548.122,552.881,554.444,7.54617,0.00101518
90.0,7.54437,548.287,558.371,559.927,7.54437,-0.000784853
93.0,7.54372,548.452,563.858,565.407,7.54404,-0.00111489
96.0,7.54479,548.617,569.341,570.883,7.54463,-0.000524941
99.0,7.54509,548.782,574.821,576.356,7.54449,-0.000664995
102.0,7.54409,548.947,580.298,581.826,7.54409,-0.00106505
105.0,7.54785,549.112,585.771,587.292,7.54655,0.00139488
108.0,7.5451,549.277,591.241,592.755,7.5451,-5.51683e-05
111.0,7.54342,549.442,596.708,598.215,7.54342,-0.00173522
114.0,7.54426,549.607,602.172,603.671,7.54509,-6.5286e-05
117.0,7.54438,549.772,607.632,609.125,7.54577,0.000614645
120.0,7.54709,549.937,613.089,614.575,7.54633,0.00117458
123.0,7.54537,550.102,618.543,620.021,7.54537,0.000214524
126.0,7.54571,550.267,623.993,625.465,7.54512,-3.55269e-05
129.0,7.54578,550.432,629.44,630.905,7.54578,0.000624421
132.0,7.54385,550.597,634.884,636.342,7.54404,-0.00111563
135.0,7.54351,550.762,640.325,641.776,7.54292,-0.00223568
138.0,7.54462,550.927,645.762,647.206,7.54462,-0.000535745
141.0,7.54667,551.092,651.197,652.633,7.54644,0.00128418
144.0,7.54681,551.257,656.627,658.057,7.54699,0.00183411
147.0,7.54721,551.422,662.055,663.478,7.54767,0.00251407
150.0,7.54805,551.587,667.48,668.895,7.54803,0.00287404
153.0,7.54531,551.752,672.901,674.309,7.54467,-0.000485968
156.0,7.5436,551.917,678.319,679.72,7.54407,-0.00108598
159.0,7.54452,552.082,683.733,685.128,7.54452,-0.000636002
162.0,7.54502,552.247,689.145,690.533,7.54502,-0.000136029
165.0,7.54729,552.412,694.553,695.934,7.54612,0.000963945
168.0,7.54363,552.577,699.958,701.332,7.54504,-0.000116071
171.0,7.54787,552.742,705.36,706.727,7.54589,0.000733909
174.0,7.54503,552.907,710.758,712.118,7.5458,0.000643901
177.0,7.54466,553.072,716.154,717.507,7.54466,-0.000496102
180.0,7.54383,553.237,721.546,722.892,7.54383,-0.00132611
183.0,7.54507,553.402,726.935,728.274,7.54507,-8.61245e-05
186.0,7.54566,553.567,732.32,733.652,7.54566,0.000503857
189.0,7.54736,553.732,737.703,739.028,7.54716,0.00200384
192.0,7.547,553.897,743.082,744.4,7.547,0.00184385
195.0,7.54639,554.062,748.458,749.769,7.54639,0.00123387
198.0,7.54442,554.227,753.831,755.135,7.54442,-0.000736098
201.0,7.54554,554.392,759.201,760.498,7.54554,0.000383935
204.0,7.54628,554.557,764.567,765.858,7.54715,0.00199397
207.0,7.54752,554.722,769.93,771.214,7.54729,0.00213402
210.0,7.5453,554.887,775.29,776.567,7.5453,0.000144092
213.0,7.54646,555.052,780.647,781.917,7.54646,0.00130416
216.0,7.54956,555.217,786.001,787.264,7.54859,0.00343425
219.0,7.54632,555.382,791.352,792.608,7.54632,0.00116436
222.0,7.54598,555.546,796.699,797.948,7.54571,0.000554497
225.0,7.54644,555.711,802.043,803.285,7.54553,0.000374633
228.0,7.54483,555.876,807.384,808.62,7.54553,0.000374773
231.0,7.54502,556.041,812.722,813.951,7.54534,0.000184915
234.0,7.54598,556.206,818.057,819.278,7.54576,0.000605059
237.0,7.54546,556.371,823.388,824.603,7.54557,0.000415208
240.0,7.54614,556.536,828.716,829.924,7.54614,0.000985359
243.0,7.54679,556.701,834.042,835.243,7.54679,0.00163552
246.0,7.54663,556.866,839.364,840.558,7.54689,0.0017357
249.0,7.54754,557.031,844.682,845.87,7.54754,0.00238589
252.0,7.54819,557.196,849.998,851.179,7.54785,0.0026961
255.0,7.54676,557.361,855.311,856.485,7.54664,0.00148634
258.0,7.54602,557.526,860.62,861.787,7.54642,0.00126659
261.0,7.54547,557.691,865.927,867.087,7.54547,0.000316856
264.0,7.54606,557.856,871.23,872.383,7.54606,0.000907122
267.0,7.54733,558.021,876.53,877.676,7.54733,0.00217739
270.0,7.54802,558.186,881.827,882.966,7.54802,0.00286769
273.0,7.54601,558.351,887.12,888.253,7.54601,0.000858003
276.0,7.54387,558.516,892.411,893.537,7.54516,8.32139e-06
279.0,7.54464,558.681,897.698,898.818,7.54516,8.63748e-06
282.0,7.54758,558.846,902.983,904.095,7.54613,0.000978954
285.0,7.5452,559.011,908.264,909.37,7.54546,0.000309283
288.0,7.54378,559.176,913.542,914.641,7.54378,-0.00137039
291.0,7.54528,559.341,918.817,919.909,7.54528,0.000129937
294.0,7.54711,559.506,924.089,925.174,7.54648,0.00133026
297.0,7.54629,559.671,929.358,930.436,7.54648,0.00133059
300.0,7.54631,559.836,934.624,935.695,7.54631,0.00116094
303.0,7.54517,560.001,939.886,940.951,7.54573,0.000581299
306.0,7.54621,560.166,945.146,946.204,7.54641,0.00126166
309.0,7.54618,560.331,950.402,951.454,7.54625,0.00110204
312.0,7.54661,560.496,955.656,956.7,7.54623,0.00108243
315.0,7.54348,560.661,960.906,961.944,7.54414,-0.00100717
318.0,7.54493,560.826,966.153,967.184,7.54493,-0.000216787
321.0,7.54546,560.991,971.397,972.421,7.54563,0.000483597
324.0,7.5461,561.156,976.638,977.655,7.5461,0.000953986
327.0,7.54616,561.321,981.876,982.887,7.54583,0.000684383
330.0,7.54513,561.486,987.111,988.115,7.54517,2.47864e-05
333.0,7.54555,561.651,992.342,993.34,7.54555,0.000405191
336.0,7.54665,561.816,997.571,998.562,7.54667,0.0015256
339.0,7.54755,561.981,1002.8,1003.78,7.54667,0.00152602
342.0,7.54429,562.146,1008.02,1009,7.54429,-0.000853544
345.0,7.5437,562.311,1013.24,1014.21,7.5437,-0.00144312
348.0,7.54434,562.476,1018.45,1019.42,7.54458,-0.000562702
351.0,7.54624,562.641,1023.67,1024.63,7.54624,0.00109771
354.0,7.54599,562.806,1028.88,1029.83,7.54599,0.000848129
357.0,7.54357,562.971,1034.09,1035.03,7.54519,4.85541e-05
360.0,7.54679,563.136,1039.29,1040.23,7.54587,0.000728974
363.0,7.5448,563.301,1044.49,1045.42,7.54611,0.000969403
366.0,7.54612,563.466,1049.69,1050.61,7.54618,0.00103984
369.0,7.54598,563.631,1054.88,1055.8,7.54634,0.00120028
372.0,7.54694,563.796,1060.08,1060.99,7.54647,0.00133073
375.0,7.54417,563.961,1065.27,1066.17,7.54536,0.000221197
378.0,7.54659,564.126,1070.45,1071.35,7.54647,0.00133166
381.0,7.54667,564.291,1075.63,1076.52,7.54584,0.000702138
384.0,7.54395,564.456,1080.81,1081.7,7.54534,0.000202618
387.0,7.54499,564.621,1085.99,1086.87,7.54499,-0.000146903
390.0,7.54509,564.786,1091.16,1092.03,7.54509,-4.64269e-05
393.0,7.54487,564.951,1096.34,1097.2,7.54524,0.000104051
396.0,7.54405,565.116,1101.5,1102.36,7.54405,-0.00108547
399.0,7.54409,565.281,1106.67,1107.52,7.54409,-0.001045
402.0,7.54426,565.446,1111.83,1112.67,7.54526,0.000125465
405.0,7.54571,565.611,1116.99,1117.82,7.54571,0.000575926
408.0,7.54563,565.776,1122.14,1122.97,7.545,-0.00013361
411.0,7.54556,565.941,1127.3,1128.12,7.54556,0.000426854
414.0,7.54684,566.106,1132.45,1133.26,7.54684,0.00170733
417.0,7.54426,566.271,1137.59,1138.4,7.54426,-0.000872197
420.0,7.54489,566.436,1142.74,1143.54,7.54455,-0.000581729
423.0,7.54497,566.601,1147.88,1148.67,7.54412,-0.00101127
426.0,7.54458,566.766,1153.02,1153.81,7.54458,-0.00055081
429.0,7.54426,566.931,1158.15,1158.93,7.54496,-0.000170358
432.0,7.54702,567.096,1163.28,1164.06,7.54542,0.000290089
435.0,7.54483,567.261,1168.41,1169.18,7.54483,-0.000299456
438.0,7.5441,567.426,1173.54,1174.3,7.5441,-0.001029
441.0,7.54553,567.591,1178.66,1179.42,7.54553,0.000401439
444.0,7.54589,567.756,1183.78,1184.53,7.54613,0.00100188
447.0,7.5482,567.921,1188.9,1189.64,7.54685,0.00172234
450.0,7.54438,568.086,1194.01,1194.75,7.54438,-0.000747192
453.0,7.54496,568.251,1199.12,1199.85,7.54459,-0.000536724
456.0,7.54539,568.416,1204.23,1204.95,7.5449,-0.000226265
459.0,7.54558,568.58,1209.33,1210.05,7.54658,0.00145419
462.0,7.54736,568.745,1214.44,1215.15,7.54703,0.00190466
465.0,7.54549,568.91,1219.53,1220.24,7.54549,0.00036514
468.0,7.54629,569.075,1224.63,1225.33,7.54662,0.00149562
471.0,7.54535,569.24,1229.72,1230.42,7.54662,0.00149612
474.0,7.54646,569.405,1234.81,1235.5,7.54569,0.000566618
477.0,7.54326,569.57,1239.9,1240.58,7.54328,-0.00184287
480.0,7.54452,569.735,1244.99,1245.66,7.54452,-0.000602382
483.0,7.54563,569.9,1250.07,1250.73,7.54584,0.000718108
486.0,7.54445,570.065,1255.14,1255.8,7.54482,-0.000301396
489.0,7.54511,570.23,1260.22,1260.87,7.54482,-0.000300905
492.0,7.54416,570.395,1265.29,1265.94,7.54511,-1.04182e-05
495.0,7.54505,570.56,1270.36,1271,7.54507,-4.99332e-05
498.0,7.54478,570.725,1275.43,1276.06,7.54475,-0.000369446
501.0,7.54376,570.89,1280.49,1281.12,7.54369,-0.00142896
504.0,7.54301,571.055,1285.55,1286.17,7.54301,-0.0021085
507.0,7.5438,571.22,1290.61,1291.22,7.5438,-0.00131805
510.0,7.54309,571.385,1295.67,1296.27,7.54339,-0.00172762
513.0,7.54551,571.55,1300.72,1301.32,7.54544,0.000322803
516.0,7.54554,571.715,1305.77,1306.36,7.54544,0.000323223
519.0,7.54534,571.88,1310.81,1311.4,7.54534,0.000223645
522.0,7.5477,572.045,1315.86,1316.44,7.54708,0.00196407
525.0,7.54593,572.21,1320.9,1321.47,7.546,0.000884518
528.0,7.5466,572.375,1325.94,1326.5,7.54602,0.000904972
531.0,7.54358,572.54,1330.97,1331.53,7.54358,-0.00153456
534.0,7.54564,572.705,1336,1336.56,7.54665,0.00153589
537.0,7.54797,572.87,1341.03,1341.58,7.54702,0.00190635
540.0,7.54311,573.035,1346.06,1346.6,7.54479,-0.000323175
543.0,7.54688,573.2,1351.08,1351.61,7.54688,0.00176729
546.0,7.5483,573.365,1356.1,1356.63,7.54736,0.00224777
549.0,7.54499,573.53,1361.12,1361.64,7.54499,-0.000121726
552.0,7.54634,573.695,1366.13,1366.65,7.54495,-0.000161225
555.0,7.54371,573.86,1371.14,1371.65,7.54476,-0.000350718
558.0,7.54527,574.025,1376.15,1376.65,7.54426,-0.000850218
561.0,7.54464,574.19,1381.16,1381.65,7.54464,-0.000469721
564.0,7.54479,574.355,1386.16,1386.65,7.54479,-0.00031923
567.0,7.54404,574.52,1391.16,1391.64,7.54461,-0.00049874
570.0,7.54358,574.685,1396.16,1396.63,7.5447,-0.000408259
573.0,7.5457,574.85,1401.15,1401.62,7.5457,0.000592214
576.0,7.54607,575.015,1406.14,1406.61,7.54607,0.000962692
579.0,7.54319,575.18,1411.13,1411.59,7.54408,-0.00102682
582.0,7.54317,575.345,1416.12,1416.57,7.54408,-0.00102635
585.0,7.54706,575.51,1421.1,1421.54,7.54586,0.00075411
588.0,7.5444,575.675,1426.08,1426.52,7.54494,-0.000165419
591.0,7.54438,575.84,1431.06,1431.49,7.54467,-0.00043495
594.0,7.54483,576.005,1436.03,1436.46,7.54467,-0.000434485
597.0,7.54468,576.17,1441,1441.42,7.54455,-0.000554026
600.0,7.54381,576.335,1445.97,1446.38,7.54418,-0.000923572
603.0,7.54264,576.5,1450.94,1451.34,7.54307,-0.00203313
606.0,7.54324,576.665,1455.9,1456.3,7.54324,-0.0018627
609.0,7.54543,576.83,1460.86,1461.25,7.54504,-6.22886e-05
612.0,7.54285,576.995,1465.82,1466.2,7.5443,-0.000801878
615.0,7.54562,577.16,1470.77,1471.15,7.54497,-0.000131478
618.0,7.54453,577.325,1475.72,1476.1,7.54453,-0.000571079
621.0,7.54314,577.49,1480.67,1481.04,7.5435,-0.00160068
624.0,7.54408,577.655,1485.62,1485.98,7.5435,-0.0016003
627.0,7.54396,577.82,1490.56,1490.91,7.544,-0.00109994
630.0,7.54612,577.985,1495.5,1495.85,7.54529,0.000190422
633.0,7.54572,578.15,1500.44,1500.78,7.54537,0.000270783
636.0,7.54445,578.315,1505.37,1505.71,7.54465,-0.000448852
639.0,7.54625,578.48,1510.3,1510.63,7.54547,0.000371509
642.0,7.5446,578.645,1515.23,1515.55,7.54447,-0.000628124
645.0,7.5445,578.81,1520.16,1520.47,7.54412,-0.000977762
648.0,7.54153,578.975,1525.08,1525.39,7.54192,-0.00317741
651.0,7.54467,579.14,1530,1530.31,7.54464,-0.000457083
654.0,7.54371,579.305,1534.92,1535.22,7.54464,-0.000456761
657.0,7.54549,579.47,1539.83,1540.13,7.54518,8.3556e-05
660.0,7.54716,579.635,1544.75,1545.03,7.54623,0.00113387
663.0,7.54501,579.8,1549.65,1549.93,7.54505,-4.57957e-05
666.0,7.54579,579.965,1554.56,1554.83,7.54506,-3.54684e-05
669.0,7.54487,580.13,1559.47,1559.73,7.54506,-3.51408e-05
672.0,7.54556,580.295,1564.37,1564.63,7.54496,-0.000134813
675.0,7.54504,580.46,1569.26,1569.52,7.54494,-0.000154487
678.0,7.54297,580.625,1574.16,1574.41,7.54383,-0.00126416
681.0,7.54509,580.79,1579.05,1579.29,7.54509,-3.85016e-06
684.0,7.54549,580.955,1583.94,1584.18,7.54562,0.000526461
687.0,7.54491,581.12,1588.83,1589.06,7.54548,0.000386778
690.0,7.54606,581.285,1593.71,1593.94,7.54475,-0.000342903
693.0,7.54291,581.45,1598.59,1598.81,7.54372,-0.00137259
696.0,7.54434,581.614,1603.47,1603.68,7.54454,-0.000552281
699.0,7.54621,581.779,1608.35,1608.55,7.5459,0.00080802
702.0,7.54526,581.944,1613.22,1613.42,7.54526,0.000168329
705.0,7.54463,582.109,1618.09,1618.28,7.54463,-0.000461364
708.0,7.54535,582.274,1622.96,1623.15,7.54535,0.000258941
711.0,7.54553,582.439,1627.83,1628,7.54523,0.000139252
714.0,7.54434,582.604,1632.69,1632.86,7.54455,-0.000540435
717.0,7.54415,582.769,1637.55,1637.71,7.54415,-0.000940126
720.0,7.54264,582.934,1642.4,1642.56,7.54341,-0.00167982
723.0,7.54429,583.099,1647.26,1647.41,7.54341,-0.00167954
726.0,7.54246,583.264,1652.11,1652.26,7.54366,-0.00142927
729.0,7.54259,583.429,1656.96,1657.1,7.54365,-0.00143901
732.0,7.54364,583.594,1661.8,1661.94,7.54358,-0.00150877
735.0,7.54394,583.759,1666.65,1666.77,7.54366,-0.00142854
738.0,7.54241,583.924,1671.49,1671.61,7.54364,-0.00144833
741.0,7.54455,584.089,1676.32,1676.44,7.54455,-0.000538136
744.0,7.54628,584.254,1681.16,1681.27,7.54598,0.000892056
747.0,7.54439,584.419,1685.99,1686.09,7.54477,-0.000317746
750.0,7.54519,584.584,1690.82,1690.92,7.5448,-0.000287548
753.0,7.54557,584.749,1695.65,1695.74,7.54443,-0.000657355
756.0,7.54456,584.914,1700.47,1700.55,7.54443,-0.000657165
759.0,7.54527,585.079,1705.29,1705.37,7.54491,-0.000176982
762.0,7.54259,585.244,1710.11,1710.18,7.54435,-0.000736805
765.0,7.54482,585.409,1714.92,1714.99,7.54435,-0.000736636
768.0,7.54459,585.574,1719.74,1719.8,7.54459,-0.000496472
771.0,7.5438,585.739,1724.55,1724.6,7.5438,-0.00128631
774.0,7.54419,585.904,1729.35,1729.4,7.54419,-0.000896158
777.0,7.54463,586.069,1734.16,1734.2,7.54463,-0.000456012
780.0,7.54347,586.234,1738.96,1739,7.54387,-0.00121587
783.0,7.54481,586.399,1743.76,1743.79,7.54481,-0.000275741
786.0,7.54682,586.564,1748.56,1748.58,7.54543,0.000344382
789.0,7.54523,586.729,1753.35,1753.37,7.54497,-0.000115489
792.0,7.54315,586.894,1758.14,1758.15,7.54315,-0.00193536
795.0,7.54493,587.059,1762.93,1762.94,7.54493,-0.000155243
798.0,7.54401,587.224,1767.72,1767.72,7.54413,-0.000955133
801.0,7.54512,587.389,1772.5,1772.49,7.54512,3.49711e-05
804.0,7.5459,587.554,1777.28,1777.27,7.5454,0.000315074
807.0,7.54326,587.719,1782.06,1782.04,7.54326,-0.00182482
810.0,7.54332,587.884,1786.83,1786.81,7.54332,-0.00176472
813.0,7.54241,588.049,1791.61,1791.57,7.54363,-0.00145464
816.0,7.54363,588.214,1796.38,1796.34,7.54363,-0.00145458
819.0,7.54427,588.379,1801.14,1801.1,7.54466,-0.000424532
822.0,7.54583,588.544,1805.91,1805.86,7.54545,0.00036551
825.0,7.54411,588.709,1810.67,1810.61,7.54411,-0.000974445
828.0,7.54471,588.874,1815.43,1815.37,7.54443,-0.00065441
831.0,7.54413,589.039,1820.19,1820.12,7.54413,-0.000954381
834.0,7.54368,589.204,1824.94,1824.86,7.54368,-0.00140436
837.0,7.54497,589.369,1829.69,1829.61,7.54415,-0.000934359
840.0,7.54402,589.534,1834.44,1834.35,7.54402,-0.00106436
843.0,7.5421,589.699,1839.18,1839.09,7.54286,-0.00222437
846.0,7.54373,589.864,1843.93,1843.83,7.54386,-0.0012244
849.0,7.54582,590.029,1848.67,1848.56,7.54582,0.000735568
852.0,7.54551,590.194,1853.41,1853.29,7.54538,0.000295537
855.0,7.54433,590.359,1858.14,1858.02,7.54524,0.000155508
858.0,7.54588,590.524,1862.87,1862.75,7.54575,0.000665479
861.0,7.54646,590.689,1867.6,1867.47,7.5461,0.00101546
864.0,7.54527,590.854,1872.33,1872.2,7.54527,0.000185441
867.0,7.54416,591.019,1877.06,1876.91,7.54416,-0.000924576
870.0,7.54443,591.184,1881.78,1881.63,7.54502,-6.4605e-05
873.0,7.54641,591.349,1886.5,1886.34,7.54592,0.000835365
876.0,7.54376,591.514,1891.21,1891.05,7.54376,-0.00132466
879.0,7.54264,591.679,1895.93,1895.76,7.54264,-0.00244469
882.0,7.54591,591.844,1900.64,1900.47,7.54522,0.000135262
885.0,7.5454,592.009,1905.35,1905.17,7.5454,0.000315214
888.0,7.54441,592.174,1910.05,1909.87,7.54532,0.000235167
891.0,7.54454,592.339,1914.76,1914.57,7.54454,-0.00054488
894.0,7.54451,592.504,1919.46,1919.26,7.54444,-0.000644934
897.0,7.54563,592.669,1924.16,1923.96,7.54526,0.000175007
900.0,7.54448,592.834,1928.85,1928.64,7.54448,-0.000605052
903.0,7.54333,592.999,1933.55,1933.33,7.54333,-0.00175512
906.0,7.5443,593.164,1938.24,1938.02,7.54438,-0.000705197
909.0,7.54466,593.329,1942.93,1942.7,7.54429,-0.000795283
912.0,7.5433,593.494,1947.61,1947.38,7.54348,-0.00160538
915.0,7.54311,593.659,1952.29,1952.05,7.5435,-0.00158549
918.0,7.54317,593.824,1956.97,1956.73,7.54346,-0.00162561
921.0,7.54501,593.989,1961.65,1961.4,7.54501,-7.57476e-05
924.0,7.54683,594.154,1966.33,1966.07,7.54568,0.000594113
927.0,7.54521,594.319,1971,1970.73,7.54566,0.000573983
930.0,7.54488,594.484,1975.67,1975.4,7.54458,-0.000506142
933.0,7.54449,594.648,1980.33,1980.06,7.54436,-0.000726269
936.0,7.5425,594.813,1985,1984.72,7.54338,-0.0017064
939.0,7.54731,594.978,1989.66,1989.37,7.54628,0.00119345
942.0,7.54443,595.143,1994.32,1994.03,7.54531,0.000223306
945.0,7.54384,595.308,1998.98,1998.68,7.54384,-0.00124683
948.0,7.5445,595.473,2003.63,2003.33,7.5445,-0.00058698
951.0,7.54532,595.638,2008.28,2007.97,7.54482,-0.000267134
954.0,7.5445,595.803,2012.93,2012.62,7.54445,-0.00063729
957.0,7.54214,595.968,2017.58,2017.26,7.54379,-0.00129745
960.0,7.54344,596.133,2022.22,2021.89,7.54344,-0.00164763
963.0,7.54558,596.298,2026.86,2026.53,7.54547,0.000382175
966.0,7.5455,596.463,2031.5,2031.16,7.54547,0.000381979
969.0,7.54303,596.628,2036.14,2035.79,7.54429,-0.000798218
972.0,7.5451,596.793,2040.77,2040.42,7.54477,-0.000318425
975.0,7.54492,596.958,2045.4,2045.05,7.54492,-0.000168634
978.0,7.54652,597.123,2050.03,2049.67,7.5456,0.000511155
981.0,7.54243,597.288,2054.66,2054.29,7.54372,-0.00136905
984.0,7.54518,597.453,2059.28,2058.91,7.54461,-0.000479268
987.0,7.5445,597.618,2063.9,2063.52,7.5445,-0.00058949
990.0,7.54409,597.783,2068.52,2068.13,7.54388,-0.00120972
993.0,7.54519,597.948,2073.14,2072.74,7.54519,0.000100043
996.0,7.54592,598.113,2077.75,2077.35,7.54562,0.000529804
999.0,7.54233,598.278,2082.36,2081.95,7.5433,-0.00179043
1002.0,7.54498,598.443,2086.97,2086.56,7.54498,-0.000110687
1005.0,7.54437,598.608,2091.57,2091.16,7.54437,-0.000720944
1008.0,7.54463,598.773,2096.18,2095.75,7.54455,-0.000541208
1011.0,7.54404,598.938,2100.78,2100.35,7.54455,-0.000541477
1014.0,7.54391,599.103,2105.38,2104.94,7.54339,-0.00170175
1017.0,7.54336,599.268,2109.97,2109.53,7.54336,-0.00173204
1020.0,7.54495,599.433,2114.56,2114.12,7.54495,-0.000142346
1023.0,7.54481,599.598,2119.15,2118.7,7.54455,-0.00054265
1026.0,7.54463,599.763,2123.74,2123.28,7.54457,-0.000522959
1029.0,7.54406,599.928,2128.33,2127.86,7.54457,-0.000523273
1032.0,7.54523,600.093,2132.91,2132.44,7.54403,-0.00106359
1035.0,7.54428,600.258,2137.49,2137.01,7.54428,-0.000813922
1038.0,7.54454,600.423,2142.07,2141.59,7.54462,-0.000474256
1041.0,7.54585,600.588,2146.64,2146.15,7.54444,-0.000654593
1044.0,7.54344,600.753,2151.22,2150.72,7.54344,-0.00165493
1047.0,7.54271,600.918,2155.79,2155.29,7.54271,-0.00238529
1050.0,7.54384,601.083,2160.35,2159.85,7.54384,-0.00125567
1053.0,7.5441,601.248,2164.92,2164.41,7.5441,-0.000996054
1056.0,7.54322,601.413,2169.48,2168.96,7.54322,-0.00187645
1059.0,7.5443,601.578,2174.04,2173.52,7.5443,-0.00079687
1062.0,7.54402,601.743,2178.6,2178.07,7.54402,-0.00107729
1065.0,7.54499,601.908,2183.16,2182.62,7.54485,-0.000247726
1068.0,7.54274,602.073,2187.71,2187.17,7.54297,-0.00212816
1071.0,7.54587,602.238,2192.26,2191.71,7.54571,0.00061138
1074.0,7.54489,602.403,2196.81,2196.25,7.54489,-0.000209071
1077.0,7.54392,602.568,2201.35,2200.79,7.54399,-0.00110952
1080.0,7.5435,602.733,2205.89,2205.33,7.54394,-0.00115998
1083.0,7.54508,602.898,2210.43,2209.86,7.54432,-0.000780456
1086.0,7.54518,603.063,2214.97,2214.4,7.54496,-0.000140934
1089.0,7.54567,603.228,2219.51,2218.92,7.54496,-0.000141414
1092.0,7.54389,603.393,2224.04,2223.45,7.54436,-0.000741894
1095.0,7.54306,603.558,2228.57,2227.98,7.54313,-0.00197238
1098.0,7.5444,603.723,2233.1,2232.5,7.54403,-0.00107289
1101.0,7.54584,603.888,2237.62,2237.02,7.54486,-0.000243399
1104.0,7.5442,604.053,2242.15,2241.54,7.5442,-0.00090391
1107.0,7.54236,604.218,2246.67,2246.05,7.54236,-0.00274443
1110.0,7.54297,604.383,2251.19,2250.56,7.54297,-0.00213497
1113.0,7.54671,604.548,2255.7,2255.07,7.54527,0.000164468
1116.0,7.54441,604.713,2260.21,2259.58,7.54516,5.39163e-05
1119.0,7.54453,604.878,2264.72,2264.08,7.54453,-0.000576637
1122.0,7.54498,605.043,2269.23,2268.59,7.54437,-0.000737193
1125.0,7.54372,605.208,2273.74,2273.09,7.54375,-0.00135775
1128.0,7.54334,605.373,2278.24,2277.58,7.5437,-0.00140832
1131.0,7.54542,605.538,2282.74,2282.08,7.54476,-0.000348906
1134.0,7.54415,605.703,2287.24,2286.57,7.54521,0.000100508
1137.0,7.54471,605.868,2291.74,2291.06,7.54528,0.000169919
1140.0,7.54518,606.033,2296.23,2295.55,7.54528,0.00016933
1143.0,7.54724,606.198,2300.72,2300.03,7.54504,-7.12565e-05
1146.0,7.54484,606.363,2305.21,2304.52,7.54458,-0.000531839
1149.0,7.54386,606.528,2309.7,2309,7.54386,-0.00125243
1152.0,7.54306,606.693,2314.18,2313.47,7.54395,-0.00116303
1155.0,7.5443,606.858,2318.66,2317.95,7.5443,-0.000813642
1158.0,7.54589,607.023,2323.14,2322.42,7.54529,0.000175738
1161.0,7.54478,607.188,2327.62,2326.89,7.54507,-4.48819e-05
1164.0,7.54229,607.353,2332.09,2331.36,7.5443,-0.000815502
1167.0,7.54419,607.518,2336.56,2335.83,7.5443,-0.000816134
1170.0,7.5447,607.682,2341.03,2340.29,7.54499,-0.000126773
1173.0,7.54516,607.847,2345.5,2344.75,7.54516,4.25864e-05
1176.0,7.54508,608.012,2349.96,2349.21,7.54466,-0.000458053
1179.0,7.54567,608.177,2354.42,2353.67,7.54495,-0.000168696
1182.0,7.54311,608.342,2358.88,2358.12,7.54311,-0.00200934
1185.0,7.54173,608.507,2363.34,2362.57,7.54211,-0.00301
1188.0,7.54304,608.672,2367.79,2367.02,7.54361,-0.00151069
1191.0,7.54439,608.837,2372.25,2371.47,7.54408,-0.00104139
1194.0,7.54413,609.002,2376.7,2375.91,7.54474,-0.000382108
1197.0,7.54581,609.167,2381.14,2380.35,7.54487,-0.000252828
1200.0,7.54346,609.332,2385.59,2384.79,7.54455,-0.000573549
1203.0,7.5441,609.497,2390.03,2389.23,7.54425,-0.000874277
1206.0,7.544,609.662,2394.47,2393.66,7.54428,-0.000845014
1209.0,7.54593,609.827,2398.91,2398.09,7.54593,0.000804244
1212.0,7.54501,609.992,2403.34,2402.52,7.54538,0.000253507
1215.0,7.5446,610.157,2407.78,2406.95,7.5446,-0.000527227
1218.0,7.54317,610.322,2412.21,2411.38,7.54326,-0.00186797
1221.0,7.54437,610.487,2416.63,2415.8,7.54401,-0.00111872
1224.0,7.54273,610.652,2421.06,2420.22,7.5439,-0.00122949
1227.0,7.543,610.817,2425.48,2424.64,7.543,-0.00213027
1230.0,7.5435,610.982,2429.9,2429.05,7.5435,-0.00163106
1233.0,7.54319,611.147,2434.32,2433.46,7.54371,-0.00142187
1236.0,7.54453,611.312,2438.74,2437.87,7.54453,-0.000602701
1239.0,7.54443,611.477,2443.15,2442.28,7.5448,-0.000333533
1242.0,7.54595,611.642,2447.56,2446.69,7.5448,-0.000334371
1245.0,7.54343,611.807,2451.97,2451.09,7.54501,-0.000125211
1248.0,7.54493,611.972,2456.38,2455.49,7.54493,-0.000206057
1251.0,7.54382,612.137,2460.78,2459.89,7.54382,-0.00131691
1254.0,7.54528,612.302,2465.19,2464.29,7.54528,0.00014222
1257.0,7.54544,612.467,2469.59,2468.68,7.54528,0.000141349
1260.0,7.54371,612.632,2473.98,2473.07,7.54371,-0.00142952
1263.0,7.54227,612.797,2478.38,2477.46,7.54361,-0.00153041
1266.0,7.54472,612.962,2482.77,2481.85,7.54361,-0.00153131
1269.0,7.54503,613.127,2487.16,2486.23,7.54503,-0.000112227
1272.0,7.54393,613.292,2491.55,2490.61,7.54493,-0.000213146
1275.0,7.54303,613.457,2495.93,2494.99,7.54303,-0.00211407
1278.0,7.54151,613.622,2500.32,2499.37,7.5425,-0.00264501
1281.0,7.54242,613.787,2504.7,2503.75,7.5425,-0.00264598
1284.0,7.54519,613.952,2509.07,2508.12,7.54496,-0.000186974
1287.0,7.54589,614.117,2513.45,2512.49,7.54496,-0.000187969
1290.0,7.54352,614.282,2517.82,2516.86,7.54456,-0.000588964
1293.0,7.54424,614.447,2522.19,2521.22,7.54456,-0.000589966
1296.0,7.54544,614.612,2526.56,2525.59,7.54492,-0.000230974
1299.0,7.54474,614.777,2530.93,2529.95,7.54474,-0.000411982
1302.0,7.54344,614.942,2535.29,2534.3,7.54409,-0.00106299
1305.0,7.5454,615.107,2539.66,2538.66,7.54371,-0.00144401
1308.0,7.54345,615.272,2544.02,2543.01,7.54371,-0.00144504
1311.0,7.54288,615.437,2548.37,2547.37,7.5446,-0.000556086
1314.0,7.5443,615.602,2552.73,2551.72,7.5446,-0.000557139
1317.0,7.54587,615.767,2557.08,2556.06,7.54587,0.000711802
1320.0,7.54509,615.932,2561.43,2560.41,7.54509,-6.92491e-05
1323.0,7.54615,616.097,2565.78,2564.75,7.54561,0.000449702
1326.0,7.54485,616.262,2570.12,2569.09,7.54485,-0.000311343
1329.0,7.54262,616.427,2574.47,2573.43,7.54324,-0.00192239
1332.0,7.54226,616.592,2578.81,2577.76,7.54264,-0.00252346
1335.0,7.54461,616.757,2583.15,2582.09,7.54461,-0.000554546
1338.0,7.54571,616.922,2587.48,2586.42,7.54571,0.00054436
1341.0,7.54382,617.087,2591.82,2590.75,7.54428,-0.000886729
1344.0,7.54458,617.252,2596.15,2595.08,7.54401,-0.00115783
1347.0,7.54252,617.417,2600.48,2599.4,7.54342,-0.00174893
1350.0,7.54492,617.582,2604.8,2603.72,7.54434,-0.000830057
1353.0,7.54412,617.747,2609.13,2608.04,7.54434,-0.000831188
1356.0,7.54418,617.912,2613.45,2612.36,7.54503,-0.000142325
1359.0,7.54378,618.077,2617.77,2616.67,7.54378,-0.00139346
1362.0,7.54329,618.242,2622.09,2620.99,7.54329,-0.00188462
1365.0,7.54313,618.407,2626.4,2625.3,7.54352,-0.00165579
1368.0,7.54356,618.572,2630.72,2629.6,7.54352,-0.00165698
1371.0,7.54304,618.737,2635.03,2633.91,7.54304,-0.00213818
1374.0,7.54392,618.902,2639.34,2638.21,7.54392,-0.0012594
1377.0,7.546,619.067,2643.64,2642.51,7.54499,-0.000190626
1380.0,7.54314,619.232,2647.95,2646.81,7.54419,-0.000991854
1383.0,7.54269,619.397,2652.25,2651.11,7.54324,-0.0019431
1386.0,7.54679,619.562,2656.55,2655.4,7.54555,0.000365643
1389.0,7.54578,619.727,2660.84,2659.69,7.54555,0.000364387
1392.0,7.54484,619.892,2665.14,2663.98,7.54499,-0.000196868
1395.0,7.54553,620.057,2669.43,2668.27,7.54502,-0.000168122
1398.0,7.54444,620.222,2673.72,2672.55,7.54447,-0.000719376
1401.0,7.54323,620.387,2678.01,2676.84,7.54402,-0.00117064
1404.0,7.54423,620.551,2682.29,2681.12,7.54309,-0.00210191
1407.0,7.54273,620.716,2686.58,2685.39,7.54309,-0.0021032
1410.0,7.54454,620.881,2690.86,2689.67,7.5443,-0.000894497
1413.0,7.54262,621.046,2695.14,2693.94,7.54406,-0.0011358
1416.0,7.54504,621.211,2699.41,2698.21,7.54405,-0.00114712
1419.0,7.54496,621.376,2703.69,2702.48,7.54494,-0.000258452
1422.0,7.54344,621.541,2707.96,2706.75,7.54385,-0.00134978
1425.0,7.54322,621.706,2712.23,2711.01,7.54379,-0.00141113
1428.0,7.5432,621.871,2716.5,2715.27,7.5429,-0.00230248
1431.0,7.5431,622.036,2720.76,2719.53,7.54283,-0.00237386
1434.0,7.54405,622.201,2725.03,2723.79,7.54405,-0.00115526
1437.0,7.54613,622.366,2729.29,2728.05,7.5456,0.000393329
1440.0,7.54398,622.531,2733.54,2732.3,7.54402,-0.00118808
1443.0,7.54483,622.696,2737.8,2736.55,7.54479,-0.000419496
1446.0,7.545,622.861,2742.05,2740.8,7.54493,-0.000280914
1449.0,7.54335,623.026,2746.31,2745.04,7.54331,-0.00190233
1452.0,7.54206,623.191,2750.56,2749.29,7.54233,-0.00288378
1455.0,7.54432,623.356,2754.8,2753.53,7.54428,-0.000935238
1458.0,7.5433,623.521,2759.05,2757.77,7.54352,-0.00169671
1461.0,7.54413,623.686,2763.29,2762.01,7.54422,-0.000998198
1464.0,7.54543,623.851,2767.53,2766.24,7.54469,-0.000529693
1467.0,7.54254,624.016,2771.77,2770.47,7.54325,-0.00197119
1470.0,7.54322,624.181,2776,2774.7,7.54291,-0.0023127
1473.0,7.54255,624.346,2780.24,2778.93,7.54288,-0.00234424
1476.0,7.54245,624.511,2784.47,2783.16,7.54248,-0.0027458
1479.0,7.54434,624.676,2788.7,2787.38,7.54416,-0.00106738
1482.0,7.54349,624.841,2792.93,2791.6,7.54464,-0.000588971
1485.0,7.54442,625.006,2797.15,2795.82,7.54483,-0.000400569
1488.0,7.5455,625.171,2801.37,2800.04,7.54435,-0.000882171
1491.0,7.54257,625.336,2805.59,2804.25,7.54395,-0.00128378
1494.0,7.54383,625.501,2809.81,2808.47,7.5442,-0.00103541
1497.0,7.54528,625.666,2814.03,2812.68,7.54497,-0.000267039
1500.0,7.54468,625.831,2818.24,2816.89,7.54468,-0.000558674
1503.0,7.54382,625.996,2822.45,2821.09,7.54382,-0.00142031
1506.0,7.54304,626.161,2826.66,2825.3,7.54304,-0.00220197
1509.0,7.5445,626.326,2830.87,2829.5,7.54442,-0.000823642
1512.0,7.54307,626.491,2835.07,2833.7,7.54339,-0.00185533
1515.0,7.54374,626.656,2839.27,2837.89,7.54374,-0.00150703
1518.0,7.54345,626.821,2843.48,2842.09,7.54347,-0.00177874
1521.0,7.54299,626.986,2847.67,2846.28,7.54299,-0.00226048
1524.0,7.54279,627.151,2851.87,2850.47,7.54294,-0.00231223
1527.0,7.54358,627.316,2856.06,2854.66,7.54354,-0.001714
1530.0,7.54559,627.481,2860.25,2858.85,7.5454,0.000144215
1533.0,7.54474,627.646,2864.44,2863.03,7.54474,-0.000517572
1536.0,7.54332,627.811,2868.63,2867.21,7.54358,-0.00167936
1539.0,7.54463,627.976,2872.82,2871.39,7.54463,-0.000631172
1542.0,7.54418,628.141,2877,2875.57,7.54469,-0.000572987
1545.0,7.5449,628.306,2881.18,2879.74,7.5449,-0.000364812
1548.0,7.54316,628.471,2885.36,2883.92,7.54316,-0.00210664
1551.0,7.53988,628.636,2889.53,2888.09,7.54209,-0.00317849
1554.0,7.54405,628.801,2893.71,2892.26,7.54405,-0.00122037
1557.0,7.54618,628.966,2897.88,2896.42,7.54424,-0.00103226
1560.0,7.54345,629.131,2902.05,2900.59,7.54345,-0.00182416
1563.0,7.54259,629.296,2906.21,2904.75,7.54259,-0.00268608
1566.0,7.54233,629.461,2910.38,2908.91,7.54233,-0.00294802
1569.0,7.54232,629.626,2914.54,2913.06,7.54378,-0.00149997
1572.0,7.54531,629.791,2918.7,2917.22,7.54531,2.80513e-05
1575.0,7.54607,629.956,2922.86,2921.37,7.54607,0.000786077
1578.0,7.5428,630.121,2927.02,2925.52,7.54345,-0.0018359
1581.0,7.54392,630.286,2931.17,2929.67,7.54426,-0.00102789
1584.0,7.54491,630.451,2935.32,2933.82,7.54426,-0.0010299
1587.0,7.54285,630.616,2939.47,2937.96,7.54352,-0.00177191
1590.0,7.5459,630.781,2943.62,2942.11,7.54427,-0.00102394
1593.0,7.54348,630.946,2947.77,2946.25,7.54391,-0.00138597
1596.0,7.54434,631.111,2951.91,2950.38,7.54434,-0.000958012
1599.0,7.54436,631.276,2956.05,2954.52,7.5443,-0.00100007
1602.0,7.5447,631.441,2960.19,2958.65,7.54458,-0.000722127
1605.0,7.54472,631.606,2964.33,2962.79,7.54458,-0.000724195
1608.0,7.54434,631.771,2968.46,2966.92,7.54355,-0.00175627
1611.0,7.54074,631.936,2972.6,2971.04,7.54332,-0.00198836
1614.0,7.54471,632.101,2976.73,2975.17,7.54313,-0.00218047
1617.0,7.54265,632.266,2980.85,2979.29,7.54313,-0.00218261
1620.0,7.54585,632.431,2984.98,2983.41,7.54515,-0.000164759
1623.0,7.5427,632.596,2989.1,2987.53,7.54382,-0.00149691
1626.0,7.54517,632.761,2993.23,2991.65,7.54397,-0.00134908
1629.0,7.54258,632.926,2997.35,2995.76,7.543,-0.00232125
1632.0,7.54264,633.091,3001.46,2999.87,7.543,-0.00232345
1635.0,7.54461,633.256,3005.58,3003.98,7.54446,-0.000865671
1638.0,7.54412,633.421,3009.69,3008.09,7.54415,-0.0011779
1641.0,7.54512,633.585,3013.8,3012.2,7.54434,-0.000990137
1644.0,7.54549,633.75,3017.91,3016.3,7.54497,-0.000362382
1647.0,7.54427,633.915,3022.02,3020.4,7.54457,-0.000764627
1650.0,7.54364,634.08,3026.12,3024.5,7.54364,-0.00169688
1653.0,7.54311,634.245,3030.23,3028.6,7.54311,-0.00222915
1656.0,7.54382,634.41,3034.33,3032.69,7.54408,-0.00126144
1659.0,7.54557,634.575,3038.42,3036.79,7.54412,-0.00122373
1662.0,7.54534,634.74,3042.52,3040.88,7.54464,-0.000706035
1665.0,7.54472,634.905,3046.61,3044.97,7.54472,-0.000628343
1668.0,7.54484,635.07,3050.71,3049.05,7.54484,-0.000510654
1671.0,7.54518,635.235,3054.8,3053.14,7.54518,-0.00017297
1674.0,7.54586,635.4,3058.88,3057.22,7.54565,0.000294712
1677.0,7.54465,635.565,3062.97,3061.3,7.54569,0.000332395
1680.0,7.54286,635.73,3067.05,3065.38,7.54329,-0.00206992
1683.0,7.54494,635.895,3071.13,3069.45,7.54455,-0.000812256
1686.0,7.54455,636.06,3075.21,3073.53,7.54455,-0.000814597
1689.0,7.54238,636.225,3079.29,3077.6,7.54238,-0.00298695
1692.0,7.54578,636.39,3083.36,3081.67,7.54447,-0.000899335
1695.0,7.54342,636.555,3087.44,3085.74,7.54423,-0.00114172
1698.0,7.54498,636.72,3091.51,3089.8,7.54498,-0.000394119
1701.0,7.5451,636.885,3095.58,3093.87,7.54504,-0.000336521
1704.0,7.54338,637.05,3099.64,3097.93,7.54338,-0.00199893
1707.0,7.54579,637.215,3103.71,3101.99,7.54579,0.000408645
1710.0,7.5437,637.38,3107.77,3106.04,7.5444,-0.000983776
1713.0,7.54352,637.545,3111.83,3110.1,7.54381,-0.00157621
1716.0,7.54372,637.71,3115.89,3114.15,7.54381,-0.00157865
1719.0,7.54473,637.875,3119.94,3118.2,7.54368,-0.00171112
1722.0,7.54257,638.04,3124,3122.25,7.54368,-0.00171359
1725.0,7.54564,638.205,3128.05,3126.3,7.54543,3.39159e-05
1728.0,7.54474,638.37,3132.1,3130.34,7.54474,-0.000658576
1731.0,7.54246,638.535,3136.15,3134.38,7.54394,-0.00146107
1734.0,7.54339,638.7,3140.19,3138.42,7.54339,-0.00201359
1737.0,7.54492,638.865,3144.24,3142.46,7.54492,-0.000486123
1740.0,7.54448,639.03,3148.28,3146.5,7.54448,-0.000928667
1743.0,7.54251,639.195,3152.32,3150.53,7.54377,-0.00164122
1746.0,7.54541,639.36,3156.35,3154.56,7.54541,-3.79099e-06
1749.0,7.54636,639.525,3160.39,3158.59,7.54579,0.000373637
1752.0,7.54632,639.69,3164.42,3162.62,7.54571,0.00029107
1755.0,7.54451,639.855,3168.45,3166.65,7.54436,-0.00106149
1758.0,7.54388,640.02,3172.48,3170.67,7.54397,-0.00145407
1761.0,7.54337,640.185,3176.51,3174.69,7.54337,-0.00205665
1764.0,7.54361,640.35,3180.53,3178.71,7.54351,-0.00191926
1767.0,7.5444,640.515,3184.55,3182.73,7.54377,-0.00166188
1770.0,7.54533,640.68,3188.58,3186.74,7.54377,-0.00166452
1773.0,7.54193,640.845,3192.59,3190.76,7.54357,-0.00186716
1776.0,7.544,641.01,3196.61,3194.77,7.544,-0.00143983
1779.0,7.54347,641.175,3200.62,3198.78,7.54347,-0.0019725
1782.0,7.54411,641.34,3204.64,3202.78,7.54411,-0.0013352
1785.0,7.54412,641.505,3208.65,3206.79,7.54412,-0.00132791
1788.0,7.54289,641.67,3212.65,3210.79,7.54296,-0.00249064
1791.0,7.54333,641.835,3216.66,3214.79,7.54333,-0.00212338
1794.0,7.54392,642,3220.66,3218.79,7.54392,-0.00153615
1797.0,7.54653,642.165,3224.67,3222.79,7.54565,0.000191074
1800.0,7.54344,642.33,3228.67,3226.78,7.5436,-0.0018617
1803.0,7.54387,642.495,3232.66,3230.78,7.5436,-0.00186449
1806.0,7.54474,642.66,3236.66,3234.77,7.54336,-0.00210729
1809.0,7.54146,642.825,3240.65,3238.76,7.5426,-0.00287011
1812.0,7.54572,642.99,3244.65,3242.74,7.54572,0.000247047
1815.0,7.54591,643.155,3248.64,3246.73,7.54578,0.000304203
1818.0,7.54287,643.32,3252.62,3250.71,7.54344,-0.00203864
1821.0,7.54549,643.485,3256.61,3254.69,7.54458,-0.000901502
1824.0,7.54289,643.65,3260.59,3258.67,7.54397,-0.00151437
1827.0,7.54528,643.815,3264.57,3262.64,7.54385,-0.00163726
1830.0,7.5427,643.98,3268.55,3266.62,7.54311,-0.00238015
1833.0,7.54352,644.145,3272.53,3270.59,7.54353,-0.00196307
1836.0,7.54353,644.31,3276.51,3274.56,7.54353,-0.00196601
1839.0,7.54332,644.475,3280.48,3278.53,7.54343,-0.00206895
1842.0,7.54581,644.64,3284.45,3282.5,7.54538,-0.000121919
1845.0,7.54563,644.805,3288.42,3286.46,7.54487,-0.000634885
1848.0,7.54297,644.97,3292.39,3290.42,7.5442,-0.00130785
1851.0,7.54552,645.135,3296.35,3294.38,7.54458,-0.000930839
1854.0,7.54506,645.3,3300.31,3298.34,7.54506,-0.000453828
1857.0,7.54451,645.465,3304.28,3302.3,7.54477,-0.000746823
1860.0,7.54388,645.63,3308.23,3306.25,7.54403,-0.00148982
1863.0,7.54457,645.795,3312.19,3310.2,7.54457,-0.00095284
1866.0,7.54388,645.96,3316.15,3314.15,7.54388,-0.00164586
1869.0,7.54344,646.125,3320.1,3318.1,7.54344,-0.0020889
1872.0,7.54509,646.29,3324.05,3322.05,7.54502,-0.000511959
1875.0,7.54614,646.455,3328,3325.99,7.54533,-0.00020502
1878.0,7.54382,646.619,3331.95,3329.93,7.54486,-0.000678077
1881.0,7.5456,646.784,3335.89,3333.87,7.5456,5.88557e-05
1884.0,7.54782,646.949,3339.83,3337.81,7.54719,0.00164579
1887.0,7.54414,647.114,3343.78,3341.74,7.54467,-0.000877258
1890.0,7.54543,647.279,3347.71,3345.68,7.54543,-0.00012031
1893.0,7.5471,647.444,3351.65,3349.61,7.54646,0.000906639
1896.0,7.54552,647.609,3355.59,3353.54,7.54604,0.000483598
1899.0,7.54561,647.774,3359.52,3357.47,7.54604,0.000480559
1902.0,7.54909,647.939,3363.45,3361.39,7.54817,0.00260752
1905.0,7.54863,648.104,3367.38,3365.32,7.54863,0.00306452
1908.0,7.54725,648.269,3371.31,3369.24,7.54759,0.00202153
1911.0,7.5502,648.434,3375.23,3373.16,7.54958,0.00400857
1914.0,7.54755,648.599,3379.15,3377.08,7.54771,0.00213564
1917.0,7.54783,648.764,3383.07,3380.99,7.54783,0.00225274
1920.0,7.55188,648.929,3386.99,3384.91,7.55076,0.00517985
1923.0,7.55059,649.094,3390.91,3388.82,7.55059,0.00500702
1926.0,7.54891,649.259,3394.83,3392.73,7.54925,0.00366423
1929.0,7.54868,649.424,3398.74,3396.64,7.54925,0.00366147
1932.0,7.5498,649.589,3402.65,3400.54,7.5498,0.00420875
1935.0,7.54901,649.754,3406.56,3404.45,7.5482,0.00260606
1938.0,7.54619,649.919,3410.47,3408.35,7.54707,0.0014734
1941.0,7.55063,650.084,3414.37,3412.25,7.55037,0.00477075
1944.0,7.55172,650.249,3418.27,3416.15,7.55095,0.00534814
1947.0,7.55142,650.414,3422.17,3420.04,7.55193,0.00632559
1950.0,7.55163,650.579,3426.07,3423.94,7.55163,0.00602308
1953.0,7.55113,650.744,3429.97,3427.83,7.55113,0.00552063
1956.0,7.55149,650.909,3433.87,3431.72,7.55164,0.00602823
1959.0,7.55206,651.074,3437.76,3435.61,7.55199,0.00637589
1962.0,7.55024,651.239,3441.65,3439.49,7.55167,0.0060536
1965.0,7.55183,651.404,3445.54,3443.38,7.55147,0.00585136
1968.0,7.55144,651.569,3449.43,3447.26,7.55144,0.00581917
1971.0,7.55142,651.734,3453.31,3451.14,7.55124,0.00561703
1974.0,7.55262,651.899,3457.2,3455.02,7.5516,0.00597494
1977.0,7.55228,652.064,3461.08,3458.89,7.55228,0.00665291
1980.0,7.55307,652.229,3464.96,3462.77,7.55272,0.00709093
1983.0,7.55188,652.394,3468.83,3466.64,7.55247,0.00683902
1986.0,7.55366,652.559,3472.71,3470.51,7.55272,0.00708717
1989.0,7.55348,652.724,3476.58,3474.38,7.55251,0.00687539
1992.0,7.55307,652.889,3480.45,3478.25,7.55307,0.00743367
1995.0,7.55812,653.054,3484.32,3482.11,7.55666,0.011022
1998.0,7.55588,653.219,3488.19,3485.97,7.55588,0.0102405
2001.0,7.55248,653.384,3492.06,3489.83,7.55376,0.00811903
2004.0,7.55489,653.549,3495.92,3493.69,7.55489,0.00924765
2007.0,7.55632,653.714,3499.78,3497.55,7.55632,0.0106764
2010.0,7.55601,653.879,3503.64,3501.4,7.5561,0.0104551
2013.0,7.55604,654.044,3507.5,3505.26,7.55515,0.00950403
2016.0,7.55378,654.209,3511.36,3509.11,7.55472,0.009073
2019.0,7.55713,654.374,3515.21,3512.96,7.5568,0.0111521
2022.0,7.55637,654.539,3519.06,3516.8,7.55637,0.0107212
2025.0,7.55541,654.704,3522.91,3520.65,7.55541,0.00976046
2028.0,7.55492,654.869,3526.76,3524.49,7.55492,0.0092698
2031.0,7.5557,655.034,3530.61,3528.33,7.55506,0.00940922
2034.0,7.5555,655.199,3534.45,3532.17,7.5555,0.00984873
2037.0,7.55659,655.364,3538.29,3536.01,7.55659,0.0109383
2040.0,7.55879,655.529,3542.13,3539.85,7.55836,0.012708
2043.0,7.55618,655.694,3545.97,3543.68,7.55618,0.0105278
2046.0,7.55503,655.859,3549.81,3547.51,7.55503,0.00937776
2047.0,7.55489,655.914,3551.09,3548.79,7.55489,0.00923775