File: data/processed/processed_data/2024-09-03/2024-09-03_glycinepowder_n_y_y_solid_100_0_5.csv
Pixels #,Intensity (a.u.),Wavelength (nm),Raman shift (cm-1),Raman shift (cm-1) adjusted,Filtered Intensity (a.u.),Baselined Filtered Intensity (a.u.)
0.0,0.0264042,543.337,392.223,393.994,0.0146564,0.0143827
3.0,0.0304169,543.502,397.81,399.573,0.0236518,0.0233781
6.0,0.00672571,543.667,403.394,405.15,0.00935992,0.00908619
9.0,0.0206973,543.832,408.974,410.723,0.0116717,0.011398
12.0,0.00895046,543.997,414.551,416.293,0.0116717,0.011398
15.0,0.0185176,544.162,420.125,421.859,0.0185176,0.0182439
18.0,0.0307878,544.327,425.695,427.422,0.0263811,0.0261074
21.0,0.0,544.492,431.261,432.981,0.00792829,0.00765456
24.0,0.0303925,544.657,436.825,438.537,0.0169576,0.0166839
27.0,0.00544358,544.822,442.385,444.09,0.00667262,0.00639889
30.0,0.0,544.987,447.941,449.64,0.00195315,0.00167942
33.0,0.00231937,545.152,453.494,455.186,0.00231937,0.00204563
36.0,0.0245818,545.317,459.044,460.728,0.0204904,0.0202167
39.0,0.00275377,545.482,464.591,466.268,0.0105738,0.0103001
42.0,0.0162743,545.647,470.134,471.804,0.0162743,0.0160006
45.0,0.00704782,545.812,475.674,477.337,0.00728133,0.00700758
48.0,0.0,545.977,481.21,482.866,0.000732433,0.000458685
51.0,0.0,546.142,486.743,488.392,0.00195315,0.0016794
54.0,0.0,546.307,492.273,493.915,0.00894179,0.00866804
57.0,0.00649667,546.472,497.8,499.434,0.00912175,0.00884799
60.0,0.0279675,546.637,503.323,504.95,0.0189189,0.0186451
63.0,0.00323416,546.802,508.843,510.463,0.011724,0.0114502
66.0,0.0203096,546.967,514.359,515.972,0.0132859,0.0130121
69.0,0.0222226,547.132,519.872,521.478,0.0222226,0.0219488
72.0,0.0331782,547.297,525.382,526.981,0.0331782,0.0329044
75.0,0.0329213,547.462,530.888,532.48,0.0329213,0.0326475
78.0,0.0265899,547.627,536.392,537.976,0.0268026,0.0265288
81.0,0.0530023,547.792,541.891,543.469,0.0398439,0.0395701
84.0,0.034717,547.957,547.388,548.958,0.0398439,0.0395701
87.0,0.0487776,548.122,552.881,554.444,0.0487776,0.0485038
90.0,0.0324035,548.287,558.371,559.927,0.0346597,0.0343859
93.0,0.0444916,548.452,563.858,565.407,0.0444916,0.0442178
96.0,0.0603633,548.617,569.341,570.883,0.0471284,0.0468546
99.0,0.0424136,548.782,574.821,576.356,0.0424136,0.0421398
102.0,0.028916,548.947,580.298,581.826,0.033499,0.0332252
105.0,0.0480019,549.112,585.771,587.292,0.042923,0.0426492
108.0,0.00713515,549.277,591.241,592.755,0.00783102,0.00755721
111.0,0.0302994,549.442,596.708,598.215,0.0302994,0.0300256
114.0,0.0457252,549.607,602.172,603.671,0.0402871,0.0400133
117.0,0.0341699,549.772,607.632,609.125,0.0341699,0.0338961
120.0,0.0447676,549.937,613.089,614.575,0.033734,0.0334602
123.0,0.0180128,550.102,618.543,620.021,0.033734,0.0334602
126.0,0.0531573,550.267,623.993,625.465,0.0353724,0.0350986
129.0,0.021998,550.432,629.44,630.905,0.0234958,0.023222
132.0,0.0164088,550.597,634.884,636.342,0.0164088,0.016135
135.0,0.0,550.762,640.325,641.776,0.00115969,0.000885856
138.0,0.0265455,550.927,645.762,647.206,0.0184023,0.0181285
141.0,0.030105,551.092,651.197,652.633,0.030105,0.0298312
144.0,0.036662,551.257,656.627,658.057,0.0328023,0.0325285
147.0,0.0129611,551.422,662.055,663.478,0.0205969,0.0203231
150.0,0.0206279,551.587,667.48,668.895,0.0206279,0.0203541
153.0,0.00977199,551.752,672.901,674.309,0.00493914,0.0046653
156.0,0.0,551.917,678.319,679.72,0.0143402,0.0140664
159.0,0.0216739,552.082,683.733,685.128,0.0211277,0.0208539
162.0,0.00306979,552.247,689.145,690.533,0.0118079,0.0115341
165.0,0.0137389,552.412,694.553,695.934,0.0118079,0.0115341
168.0,0.0,552.577,699.958,701.332,0.0097225,0.00944866
171.0,0.0262295,552.742,705.36,706.727,0.0138827,0.0136089
174.0,0.00298137,552.907,710.758,712.118,0.0148833,0.0146095
177.0,0.0276103,553.072,716.154,717.507,0.0216543,0.0213805
180.0,0.0168924,553.237,721.546,722.892,0.0119617,0.0116879
183.0,0.0,553.402,726.935,728.274,0.00152974,0.00125591
186.0,0.0222558,553.567,732.32,733.652,0.02092,0.0206462
189.0,0.0250436,553.732,737.703,739.028,0.0246622,0.0243884
192.0,0.0278579,553.897,743.082,744.4,0.0273366,0.0270628
195.0,0.0175514,554.062,748.458,749.769,0.0189453,0.0186715
198.0,0.00246367,554.227,753.831,755.135,0.0189453,0.0186715
201.0,0.0253559,554.392,759.201,760.498,0.023018,0.0227442
204.0,0.0292868,554.557,764.567,765.858,0.0233625,0.0230887
207.0,0.0224338,554.722,769.93,771.214,0.0224338,0.02216
210.0,0.0259718,554.887,775.29,776.567,0.0200437,0.0197699
213.0,0.0231733,555.052,780.647,781.917,0.0231733,0.0228995
216.0,0.0325637,555.217,786.001,787.264,0.0362304,0.0359566
219.0,0.0301846,555.382,791.352,792.608,0.0370492,0.0367754
222.0,0.0463691,555.546,796.699,797.948,0.0461883,0.0459145
225.0,0.0489308,555.711,802.043,803.285,0.0463797,0.0461059
228.0,0.0506454,555.876,807.384,808.62,0.0527945,0.0525207
231.0,0.0611704,556.041,812.722,813.951,0.0611704,0.0608966
234.0,0.0890559,556.206,818.057,819.278,0.0890559,0.0887821
237.0,0.0977361,556.371,823.388,824.603,0.0977361,0.0974623
240.0,0.0947469,556.536,828.716,829.924,0.0979947,0.0977209
243.0,0.120622,556.701,834.042,835.243,0.120622,0.120348
246.0,0.124602,556.866,839.364,840.558,0.124602,0.124328
249.0,0.152735,557.031,844.682,845.87,0.151967,0.151693
252.0,0.142539,557.196,849.998,851.179,0.149526,0.149252
255.0,0.192202,557.361,855.311,856.485,0.169924,0.16965
258.0,0.169649,557.526,860.62,861.787,0.169649,0.169375
261.0,0.179305,557.691,865.927,867.087,0.176621,0.176347
264.0,0.193839,557.856,871.23,872.383,0.17734,0.177066
267.0,0.191649,558.021,876.53,877.676,0.191649,0.191375
270.0,0.192479,558.186,881.827,882.966,0.19382,0.193546
273.0,0.203878,558.351,887.12,888.253,0.19382,0.193546
276.0,0.182415,558.516,892.411,893.537,0.178763,0.178489
279.0,0.15779,558.681,897.698,898.818,0.15779,0.157516
282.0,0.151449,558.846,902.983,904.095,0.148414,0.14814
285.0,0.120771,559.011,908.264,909.37,0.120771,0.120497
288.0,0.0968645,559.176,913.542,914.641,0.103808,0.103534
291.0,0.113778,559.341,918.817,919.909,0.113778,0.113504
294.0,0.114239,559.506,924.089,925.174,0.114239,0.113965
297.0,0.08399,559.671,929.358,930.436,0.08399,0.0837163
300.0,0.0459747,559.836,934.624,935.695,0.0673536,0.0670799
303.0,0.0589524,560.001,939.886,940.951,0.0677025,0.0674288
306.0,0.0851552,560.166,945.146,946.204,0.0677025,0.0674288
309.0,0.0734051,560.331,950.402,951.454,0.0715046,0.0712309
312.0,0.0640249,560.496,955.656,956.7,0.0640249,0.0637512
315.0,0.00942353,560.661,960.906,961.944,0.00942353,0.00914988
318.0,0.00294499,560.826,966.153,967.184,0.00389397,0.00362032
321.0,0.0291103,560.991,971.397,972.421,0.0253847,0.0251111
324.0,0.0175479,561.156,976.638,977.655,0.0175479,0.0172743
327.0,0.00856629,561.321,981.876,982.887,0.0131511,0.0128775
330.0,0.00950478,561.486,987.111,988.115,0.0144792,0.0142056
333.0,0.0200508,561.651,992.342,993.34,0.0200508,0.0197772
336.0,0.0509169,561.816,997.571,998.562,0.0489631,0.0486895
339.0,0.0476183,561.981,1002.8,1003.78,0.0476183,0.0473447
342.0,0.0304366,562.146,1008.02,1009,0.032442,0.0321684
345.0,0.0349939,562.311,1013.24,1014.21,0.0337232,0.0334496
348.0,0.0198552,562.476,1018.45,1019.42,0.0246429,0.0243693
351.0,0.031219,562.641,1023.67,1024.63,0.031219,0.0309454
354.0,0.0304715,562.806,1028.88,1029.83,0.0335303,0.0332567
357.0,0.0466453,562.971,1034.09,1035.03,0.0466453,0.0463717
360.0,0.0723108,563.136,1039.29,1040.23,0.0612142,0.0609406
363.0,0.0272948,563.301,1044.49,1045.42,0.0349182,0.0346446
366.0,0.032762,563.466,1049.69,1050.61,0.0374793,0.0372057
369.0,0.0462974,563.631,1054.88,1055.8,0.0383142,0.0380406
372.0,0.046758,563.796,1060.08,1060.99,0.0383142,0.0380406
375.0,0.0077293,563.961,1065.27,1066.17,0.0205854,0.0203119
378.0,0.0237551,564.126,1070.45,1071.35,0.0237551,0.0234816
381.0,0.0155753,564.291,1075.63,1076.52,0.0258267,0.0255532
384.0,0.0373717,564.456,1080.81,1081.7,0.0373717,0.0370982
387.0,0.0478128,564.621,1085.99,1086.87,0.0475296,0.0472561
390.0,0.0485045,564.786,1091.16,1092.03,0.0462415,0.045968
393.0,0.0415316,564.951,1096.34,1097.2,0.0405876,0.0403141
396.0,0.0395622,565.116,1101.5,1102.36,0.0295633,0.0292898
399.0,0.0210262,565.281,1106.67,1107.52,0.0210262,0.0207527
402.0,0.0338912,565.446,1111.83,1112.67,0.0255413,0.0252678
405.0,0.002407,565.611,1116.99,1117.82,0.0136777,0.0134042
408.0,0.0439006,565.776,1122.14,1122.97,0.0298295,0.029556
411.0,0.0,565.941,1127.3,1128.12,0.0116404,0.0113669
414.0,0.017642,566.106,1132.45,1133.26,0.00414698,0.00387351
417.0,0.00952078,566.271,1137.59,1138.4,0.00952078,0.00924731
420.0,0.029479,566.436,1142.74,1143.54,0.029479,0.0292055
423.0,0.0239114,566.601,1147.88,1148.67,0.0194178,0.0191443
426.0,0.0393565,566.766,1153.02,1153.81,0.0205988,0.0203253
429.0,0.0150204,566.931,1158.15,1158.93,0.0194009,0.0191274
432.0,0.0463366,567.096,1163.28,1164.06,0.0356125,0.035339
435.0,0.0303571,567.261,1168.41,1169.18,0.0303571,0.0300837
438.0,0.00118924,567.426,1173.54,1174.3,0.0240194,0.023746
441.0,0.0300431,567.591,1178.66,1179.42,0.0233804,0.023107
444.0,0.0298785,567.756,1183.78,1184.53,0.0298785,0.0296051
447.0,0.0415025,567.921,1188.9,1189.64,0.0445961,0.0443227
450.0,0.0207902,568.086,1194.01,1194.75,0.0207902,0.0205168
453.0,0.00679878,568.251,1199.12,1199.85,0.0111924,0.010919
456.0,0.0246572,568.416,1204.23,1204.95,0.0257478,0.0254744
459.0,0.0282097,568.58,1209.33,1210.05,0.0371102,0.0368368
462.0,0.0594965,568.745,1214.44,1215.15,0.0371102,0.0368368
465.0,0.0108764,568.91,1219.53,1220.24,0.0243682,0.0240948
468.0,0.0263196,569.075,1224.63,1225.33,0.0243682,0.0240948
471.0,0.00385532,569.24,1229.72,1230.42,0.0178716,0.0175982
474.0,0.0290641,569.405,1234.81,1235.5,0.0243787,0.0241053
477.0,0.0406943,569.57,1239.9,1240.58,0.0295173,0.0292439
480.0,0.0251835,569.735,1244.99,1245.66,0.0321154,0.031842
483.0,0.0343501,569.9,1250.07,1250.73,0.0343501,0.0340767
486.0,0.029054,570.065,1255.14,1255.8,0.029054,0.0287806
489.0,0.0299634,570.23,1260.22,1260.87,0.0258032,0.0255298
492.0,0.0142242,570.395,1265.29,1265.94,0.0142242,0.0139509
495.0,0.0113957,570.56,1270.36,1271,0.0197257,0.0194524
498.0,0.0222928,570.725,1275.43,1276.06,0.0197257,0.0194524
501.0,0.0136749,570.89,1280.49,1281.12,0.0146679,0.0143946
504.0,0.0112208,571.055,1285.55,1286.17,0.0112208,0.0109475
507.0,0.0129435,571.22,1290.61,1291.22,0.0129435,0.0126702
510.0,0.016859,571.385,1295.67,1296.27,0.0342377,0.0339644
513.0,0.0254595,571.55,1300.72,1301.32,0.0347237,0.0344504
516.0,0.0493736,571.715,1305.77,1306.36,0.0426818,0.0424085
519.0,0.0472416,571.88,1310.81,1311.4,0.0502921,0.0500188
522.0,0.092637,572.045,1315.86,1316.44,0.092324,0.0920507
525.0,0.0841452,572.21,1320.9,1321.47,0.0932126,0.0929393
528.0,0.0958376,572.375,1325.94,1326.5,0.0932126,0.0929393
531.0,0.0488068,572.54,1330.97,1331.53,0.0493397,0.0490664
534.0,0.0305926,572.705,1336,1336.56,0.0355654,0.0352921
537.0,0.0394111,572.87,1341.03,1341.58,0.0351511,0.0348778
540.0,0.0205976,573.035,1346.06,1346.6,0.0327722,0.0324989
543.0,0.0376257,573.2,1351.08,1351.61,0.0357427,0.0354694
546.0,0.0533236,573.365,1356.1,1356.63,0.0354727,0.0351994
549.0,0.00737587,573.53,1361.12,1361.64,0.00775692,0.00748366
552.0,0.0115065,573.695,1366.13,1366.65,0.0246523,0.024379
555.0,0.0218248,573.86,1371.14,1371.65,0.0218248,0.0215515
558.0,0.0121492,574.025,1376.15,1376.65,0.0117843,0.011511
561.0,0.0184898,574.19,1381.16,1381.65,0.0184898,0.0182166
564.0,0.018447,574.355,1386.16,1386.65,0.026193,0.0259198
567.0,0.0334695,574.52,1391.16,1391.64,0.026193,0.0259198
570.0,0.0239937,574.685,1396.16,1396.63,0.0233863,0.0231131
573.0,0.0354531,574.85,1401.15,1401.62,0.0354531,0.0351799
576.0,0.0503245,575.015,1406.14,1406.61,0.0626552,0.062382
579.0,0.0682077,575.18,1411.13,1411.59,0.0627896,0.0625164
582.0,0.0221138,575.345,1416.12,1416.57,0.0262112,0.025938
585.0,0.0306121,575.51,1421.1,1421.54,0.0306121,0.0303389
588.0,0.00722692,575.675,1426.08,1426.52,0.00971169,0.00943848
591.0,0.0352902,575.84,1431.06,1431.49,0.016695,0.0164218
594.0,0.0197741,576.005,1436.03,1436.46,0.0244078,0.0241346
597.0,0.0410449,576.17,1441,1441.42,0.0358349,0.0355617
600.0,0.0,576.335,1445.97,1446.38,0.016089,0.0158158
603.0,0.0378799,576.5,1450.94,1451.34,0.0182836,0.0180104
606.0,0.0147871,576.665,1455.9,1456.3,0.021569,0.0212958
609.0,0.0184279,576.83,1460.86,1461.25,0.0184279,0.0181547
612.0,0.0,576.995,1465.82,1466.2,0.0123861,0.0121129
615.0,0.0287416,577.16,1470.77,1471.15,0.00209049,0.00181731
618.0,0.0027924,577.325,1475.72,1476.1,0.0027924,0.00251922
621.0,0.0385618,577.49,1480.67,1481.04,0.0356852,0.035412
624.0,0.00684622,577.655,1485.62,1485.98,0.0255925,0.0253193
627.0,0.0322377,577.82,1490.56,1490.91,0.0287545,0.0284813
630.0,0.01428,577.985,1495.5,1495.85,0.0274664,0.0271932
633.0,0.0298657,578.15,1500.44,1500.78,0.027962,0.0276888
636.0,0.0103649,578.315,1505.37,1505.71,0.0139993,0.0137261
639.0,0.0135903,578.48,1510.3,1510.63,0.0120141,0.0117409
642.0,0.0377838,578.645,1515.23,1515.55,0.0195873,0.0193141
645.0,0.0179894,578.81,1520.16,1520.47,0.026918,0.0266448
648.0,0.0139033,578.975,1525.08,1525.39,0.0139033,0.0136301
651.0,0.0166372,579.14,1530,1530.31,0.0166372,0.016364
654.0,0.0374093,579.305,1534.92,1535.22,0.0359825,0.0357093
657.0,0.0177105,579.47,1539.83,1540.13,0.0191567,0.0188835
660.0,0.0198243,579.635,1544.75,1545.03,0.0198243,0.0195511
663.0,0.028756,579.8,1549.65,1549.93,0.028756,0.0284828
666.0,0.0189737,579.965,1554.56,1554.83,0.0179439,0.0176707
669.0,0.0156789,580.13,1559.47,1559.73,0.016107,0.0158338
672.0,0.0184521,580.295,1564.37,1564.63,0.0184521,0.0181789
675.0,0.0415711,580.46,1569.26,1569.52,0.0170107,0.0167375
678.0,0.0101438,580.625,1574.16,1574.41,0.0284517,0.0281785
681.0,0.0462157,580.79,1579.05,1579.29,0.0412411,0.0409679
684.0,0.048019,580.955,1583.94,1584.18,0.0412411,0.0409679
687.0,0.0,581.12,1588.83,1589.06,0.0209863,0.0207131
690.0,0.033624,581.285,1593.71,1593.94,0.0219555,0.0216823
693.0,0.0140487,581.45,1598.59,1598.81,0.0208671,0.0205939
696.0,0.0247456,581.614,1603.47,1603.68,0.0289532,0.02868
699.0,0.0243375,581.779,1608.35,1608.55,0.0259336,0.0256604
702.0,0.0315561,581.944,1613.22,1613.42,0.0278154,0.0275422
705.0,0.0214767,582.109,1618.09,1618.28,0.0321991,0.0319259
708.0,0.038797,582.274,1622.96,1623.15,0.0383223,0.0380491
711.0,0.0380736,582.439,1627.83,1628,0.0348481,0.0345749
714.0,0.00348827,582.604,1632.69,1632.86,0.0256609,0.0253877
717.0,0.0522026,582.769,1637.55,1637.71,0.0330792,0.032806
720.0,0.00262188,582.934,1642.4,1642.56,0.00262188,0.00234871
723.0,0.000946059,583.099,1647.26,1647.41,0.000946059,0.000672888
726.0,0.00888595,583.264,1652.11,1652.26,0.00733323,0.00706006
729.0,0.023523,583.429,1656.96,1657.1,0.0216227,0.0213495
732.0,0.0378838,583.594,1661.8,1661.94,0.0322735,0.0320003
735.0,0.0308371,583.759,1666.65,1666.77,0.0322735,0.0320003
738.0,0.00613759,583.924,1671.49,1671.61,0.0189505,0.0186773
741.0,0.0295634,584.089,1676.32,1676.44,0.0189505,0.0186773
744.0,0.00904332,584.254,1681.16,1681.27,0.0110252,0.010752
747.0,0.00604053,584.419,1685.99,1686.09,0.00604053,0.00576735
750.0,0.00782788,584.584,1690.82,1690.92,0.0103965,0.0101233
753.0,0.0375575,584.749,1695.65,1695.74,0.023371,0.0230978
756.0,0.0195944,584.914,1700.47,1700.55,0.023371,0.0230978
759.0,0.0330371,585.079,1705.29,1705.37,0.0330371,0.0327639
762.0,0.0331713,585.244,1710.11,1710.18,0.029039,0.0287658
765.0,0.0144051,585.409,1714.92,1714.99,0.0144051,0.0141319
768.0,0.0277352,585.574,1719.74,1719.8,0.0277352,0.027462
771.0,0.0201351,585.739,1724.55,1724.6,0.0206722,0.020399
774.0,0.0223585,585.904,1729.35,1729.4,0.0223585,0.0220853
777.0,0.0522108,586.069,1734.16,1734.2,0.0300944,0.0298212
780.0,0.020044,586.234,1738.96,1739,0.0285745,0.0283013
783.0,0.0225407,586.399,1743.76,1743.79,0.0285116,0.0282384
786.0,0.050528,586.564,1748.56,1748.58,0.050528,0.0502548
789.0,0.0634208,586.729,1753.35,1753.37,0.0603247,0.0600515
792.0,0.0404537,586.894,1758.14,1758.15,0.03099,0.0307168
795.0,0.0279357,587.059,1762.93,1762.94,0.0317115,0.0314383
798.0,0.0251916,587.224,1767.72,1767.72,0.0311202,0.030847
801.0,0.0657148,587.389,1772.5,1772.49,0.0428526,0.0425794
804.0,0.0335663,587.554,1777.28,1777.27,0.0335663,0.0332931
807.0,0.0,587.719,1782.06,1782.04,0.00439542,0.00412223
810.0,0.0471572,587.884,1786.83,1786.81,0.0358215,0.0355483
813.0,0.0119873,588.049,1791.61,1791.57,0.0191623,0.0188891
816.0,0.00549924,588.214,1796.38,1796.34,0.00549924,0.00522604
819.0,0.00616464,588.379,1801.14,1801.1,0.00975051,0.00947732
822.0,0.0344137,588.544,1805.91,1805.86,0.0269143,0.0266411
825.0,0.0160406,588.709,1810.67,1810.61,0.0250179,0.0247447
828.0,0.0243715,588.874,1815.43,1815.37,0.0249616,0.0246884
831.0,0.00529233,589.039,1820.19,1820.12,0.00621042,0.00593723
834.0,0.0398948,589.204,1824.94,1824.86,0.0398948,0.0396216
837.0,0.0386661,589.369,1829.69,1829.61,0.0386661,0.0383929
840.0,0.0146921,589.534,1834.44,1834.35,0.0162126,0.0159394
843.0,0.0119071,589.699,1839.18,1839.09,0.0162126,0.0159394
846.0,0.0361455,589.864,1843.93,1843.83,0.0358554,0.0355822
849.0,0.0215002,590.029,1848.67,1848.56,0.0338624,0.0335892
852.0,0.0473835,590.194,1853.41,1853.29,0.0473835,0.0471103
855.0,0.0315987,590.359,1858.14,1858.02,0.0436885,0.0434153
858.0,0.0460867,590.524,1862.87,1862.75,0.0436885,0.0434153
861.0,0.0321081,590.689,1867.6,1867.47,0.035087,0.0348138
864.0,0.0232256,590.854,1872.33,1872.2,0.0388784,0.0386052
867.0,0.0404162,591.019,1877.06,1876.91,0.0394605,0.0391873
870.0,0.0,591.184,1881.78,1881.63,0.0232078,0.0229346
873.0,0.042109,591.349,1886.5,1886.34,0.0235715,0.0232983
876.0,0.0158207,591.514,1891.21,1891.05,0.0235715,0.0232983
879.0,0.0331818,591.679,1895.93,1895.76,0.0308193,0.0305461
882.0,0.045292,591.844,1900.64,1900.47,0.0303086,0.0300354
885.0,0.0,592.009,1905.35,1905.17,0.0207398,0.0204666
888.0,0.0424139,592.174,1910.05,1909.87,0.027301,0.0270278
891.0,0.0223033,592.339,1914.76,1914.57,0.0223033,0.0220301
894.0,0.0464513,592.504,1919.46,1919.26,0.0195684,0.0192952
897.0,0.0217063,592.669,1924.16,1923.96,0.0202526,0.0199794
900.0,0.0115003,592.834,1928.85,1928.64,0.0115003,0.0112271
903.0,0.0365723,592.999,1933.55,1933.33,0.0365723,0.0362991
906.0,0.0112092,593.164,1938.24,1938.02,0.0112092,0.010936
909.0,0.00949874,593.329,1942.93,1942.7,0.00949874,0.00922554
912.0,0.0225977,593.494,1947.61,1947.38,0.0177158,0.0174426
915.0,0.0135732,593.659,1952.29,1952.05,0.0127364,0.0124632
918.0,0.0187455,593.824,1956.97,1956.73,0.0187455,0.0184723
921.0,0.0462671,593.989,1961.65,1961.4,0.0462671,0.0459939
924.0,0.018507,594.154,1966.33,1966.07,0.0275763,0.0273031
927.0,0.0172786,594.319,1971,1970.73,0.0172786,0.0170054
930.0,0.0282856,594.484,1975.67,1975.4,0.0282856,0.0280124
933.0,0.0279733,594.648,1980.33,1980.06,0.0279733,0.0277001
936.0,0.0137684,594.813,1985,1984.72,0.00924047,0.00896726
939.0,0.0533665,594.978,1989.66,1989.37,0.0459291,0.0456559
942.0,0.00760842,595.143,1994.32,1994.03,0.0157631,0.0154899
945.0,0.0427648,595.308,1998.98,1998.68,0.0427648,0.0424916
948.0,0.0215114,595.473,2003.63,2003.33,0.0215114,0.0212382
951.0,0.0024523,595.638,2008.28,2007.97,0.0156357,0.0153625
954.0,0.0349321,595.803,2012.93,2012.62,0.0186442,0.018371
957.0,0.0149241,595.968,2017.58,2017.26,0.0149241,0.0146509
960.0,0.00766979,596.133,2022.22,2021.89,0.00766979,0.00739657
963.0,0.028111,596.298,2026.86,2026.53,0.0229694,0.0226962
966.0,0.0236602,596.463,2031.5,2031.16,0.0233472,0.023074
969.0,0.0275013,596.628,2036.14,2035.79,0.0275013,0.0272281
972.0,0.0288097,596.793,2040.77,2040.42,0.0288097,0.0285365
975.0,0.013575,596.958,2045.4,2045.05,0.013575,0.0133018
978.0,0.00425828,597.123,2050.03,2049.67,0.0159924,0.0157192
981.0,0.0272324,597.288,2054.66,2054.29,0.0272324,0.0269592
984.0,0.0372438,597.453,2059.28,2058.91,0.0372438,0.0369706
987.0,0.029419,597.618,2063.9,2063.52,0.029419,0.0291458
990.0,0.0274649,597.783,2068.52,2068.13,0.0274649,0.0271917
993.0,0.00433356,597.948,2073.14,2072.74,0.0123084,0.0120352
996.0,0.0281275,598.113,2077.75,2077.35,0.0159829,0.0157096
999.0,0.0148742,598.278,2082.36,2081.95,0.0159829,0.0157096
1002.0,0.0141567,598.443,2086.97,2086.56,0.016417,0.0161437
1005.0,0.0089831,598.608,2091.57,2091.16,0.0089831,0.00870984
1008.0,0.0237917,598.773,2096.18,2095.75,0.0237917,0.0235184
1011.0,0.0130746,598.938,2100.78,2100.35,0.0130746,0.0128013
1014.0,0.00453574,599.103,2105.38,2104.94,0.0,-0.000273278
1017.0,0.0348057,599.268,2109.97,2109.53,0.0293609,0.0290876
1020.0,0.0362514,599.433,2114.56,2114.12,0.0266988,0.0264255
1023.0,0.0218382,599.598,2119.15,2118.7,0.0202574,0.0199841
1026.0,0.0151581,599.763,2123.74,2123.28,0.0151581,0.0148848
1029.0,0.0418445,599.928,2128.33,2127.86,0.0381826,0.0379093
1032.0,0.0309832,600.093,2132.91,2132.44,0.0309832,0.0307099
1035.0,0.0172993,600.258,2137.49,2137.01,0.0214459,0.0211726
1038.0,0.0379035,600.423,2142.07,2141.59,0.0363772,0.0361039
1041.0,0.0362266,600.588,2146.64,2146.15,0.0362266,0.0359533
1044.0,0.0156004,600.753,2151.22,2150.72,0.0160464,0.015773
1047.0,0.0341913,600.918,2155.79,2155.29,0.0281478,0.0278744
1050.0,0.0244407,601.083,2160.35,2159.85,0.0306848,0.0304114
1053.0,0.0448699,601.248,2164.92,2164.41,0.0393422,0.0390688
1056.0,0.0178399,601.413,2169.48,2168.96,0.0262623,0.0259889
1059.0,0.0228418,601.578,2174.04,2173.52,0.0228418,0.0225684
1062.0,0.00517281,601.743,2178.6,2178.07,0.00517281,0.00489941
1065.0,0.0423227,601.908,2183.16,2182.62,0.0384307,0.0381573
1068.0,0.0493774,602.073,2187.71,2187.17,0.0273228,0.0270494
1071.0,0.0,602.238,2192.26,2191.71,0.0176039,0.0173305
1074.0,0.0223892,602.403,2196.81,2196.25,0.0222078,0.0219344
1077.0,0.0196078,602.568,2201.35,2200.79,0.0233203,0.0230469
1080.0,0.0317997,602.733,2205.89,2205.33,0.0233203,0.0230469
1083.0,0.0,602.898,2210.43,2209.86,0.0104153,0.0101418
1086.0,0.0416338,603.063,2214.97,2214.4,0.0416338,0.0413603
1089.0,0.0315414,603.228,2219.51,2218.92,0.0371032,0.0368297
1092.0,0.0285911,603.393,2224.04,2223.45,0.0285911,0.0283176
1095.0,0.0186788,603.558,2228.57,2227.98,0.0289083,0.0286348
1098.0,0.0182304,603.723,2233.1,2232.5,0.0182304,0.0179569
1101.0,0.0418776,603.888,2237.62,2237.02,0.0337596,0.0334861
1104.0,0.0341561,604.053,2242.15,2241.54,0.0337596,0.0334861
1107.0,0.0,604.218,2246.67,2246.05,0.0118625,0.011589
1110.0,0.00366947,604.383,2251.19,2250.56,0.0118625,0.011589
1113.0,0.0426533,604.548,2255.7,2255.07,0.033285,0.0330115
1116.0,0.0394285,604.713,2260.21,2259.58,0.0394285,0.039155
1119.0,0.0293742,604.878,2264.72,2264.08,0.0293742,0.0291007
1122.0,0.0319084,605.043,2269.23,2268.59,0.0268323,0.0265587
1125.0,0.00897929,605.208,2273.74,2273.09,0.00897929,0.00870573
1128.0,0.00466589,605.373,2278.24,2277.58,0.00614939,0.00587582
1131.0,0.0310027,605.538,2282.74,2282.08,0.0310027,0.0307291
1134.0,0.0185929,605.703,2287.24,2286.57,0.0347939,0.0345203
1137.0,0.0103668,605.868,2291.74,2291.06,0.0103668,0.0100932
1140.0,0.004171,606.033,2296.23,2295.55,0.004654,0.00438039
1143.0,0.0314778,606.198,2300.72,2300.03,0.0228856,0.022612
1146.0,0.0324975,606.363,2305.21,2304.52,0.0324975,0.0322239
1149.0,0.0354409,606.528,2309.7,2309,0.0363,0.0360264
1152.0,0.021485,606.693,2314.18,2313.47,0.0342404,0.0339667
1155.0,0.0516787,606.858,2318.66,2317.95,0.031846,0.0315723
1158.0,0.0358988,607.023,2323.14,2322.42,0.0358988,0.0356251
1161.0,0.0363226,607.188,2327.62,2326.89,0.0363226,0.0360489
1164.0,0.0,607.353,2332.09,2331.36,0.00999466,0.00972097
1167.0,0.0363399,607.518,2336.56,2335.83,0.0118852,0.0116115
1170.0,0.0196968,607.682,2341.03,2340.29,0.0189507,0.018677
1173.0,0.0207781,607.847,2345.5,2344.75,0.0207781,0.0205044
1176.0,0.00778545,608.012,2349.96,2349.21,0.0164703,0.0161966
1179.0,0.0355121,608.177,2354.42,2353.67,0.0355121,0.0352383
1182.0,0.0350383,608.342,2358.88,2358.12,0.0350383,0.0347645
1185.0,0.0100959,608.507,2363.34,2362.57,0.0108959,0.0106221
1188.0,0.0,608.672,2367.79,2367.02,0.00753713,0.00726334
1191.0,0.0392216,608.837,2372.25,2371.47,0.0145897,0.0143159
1194.0,0.0259327,609.002,2376.7,2375.91,0.0145897,0.0143159
1197.0,0.00876949,609.167,2381.14,2380.35,0.010125,0.00985118
1200.0,0.0267537,609.332,2385.59,2384.79,0.022459,0.0221852
1203.0,0.00771498,609.497,2390.03,2389.23,0.01659,0.0163161
1206.0,0.00254577,609.662,2394.47,2393.66,0.01659,0.0163161
1209.0,0.0442557,609.827,2398.91,2398.09,0.0275699,0.027296
1212.0,0.0141792,609.992,2403.34,2402.52,0.0202096,0.0199357
1215.0,0.0316294,610.157,2407.78,2406.95,0.01989,0.0196161
1218.0,0.0166036,610.322,2412.21,2411.38,0.01989,0.0196161
1221.0,0.0313354,610.487,2416.63,2415.8,0.0275398,0.0272659
1224.0,0.00915579,610.652,2421.06,2420.22,0.0141939,0.01392
1227.0,0.00407105,610.817,2425.48,2424.64,0.0132685,0.0129945
1230.0,0.0126574,610.982,2429.9,2429.05,0.0126574,0.0123834
1233.0,0.0103418,611.147,2434.32,2433.46,0.0103418,0.0100678
1236.0,0.040592,611.312,2438.74,2437.87,0.0352866,0.0350126
1239.0,0.0110691,611.477,2443.15,2442.28,0.0110691,0.0107951
1242.0,0.0179635,611.642,2447.56,2446.69,0.00818779,0.00791377
1245.0,0.0,611.807,2451.97,2451.09,0.00678331,0.00650928
1248.0,0.0226357,611.972,2456.38,2455.49,0.00879364,0.00851959
1251.0,0.0162898,612.137,2460.78,2459.89,0.0162898,0.0160157
1254.0,0.0190842,612.302,2465.19,2464.29,0.0190842,0.0188101
1257.0,0.0189758,612.467,2469.59,2468.68,0.0189758,0.0187017
1260.0,0.0303196,612.632,2473.98,2473.07,0.0229199,0.0226458
1263.0,0.00860965,612.797,2478.38,2477.46,0.0166532,0.0163791
1266.0,0.0240078,612.962,2482.77,2481.85,0.0240078,0.0237337
1269.0,0.00787276,613.127,2487.16,2486.23,0.0144554,0.0141812
1272.0,0.0199058,613.292,2491.55,2490.61,0.0199058,0.0196316
1275.0,0.0334667,613.457,2495.93,2494.99,0.0321928,0.0319186
1278.0,0.0108491,613.622,2500.32,2499.37,0.0181623,0.0178881
1281.0,0.00123598,613.787,2504.7,2503.75,0.0,-0.000274216
1284.0,0.0,613.952,2509.07,2508.12,0.0,-0.000274229
1287.0,0.0347707,614.117,2513.45,2512.49,0.022734,0.0224598
1290.0,0.022547,614.282,2517.82,2516.86,0.015531,0.0152567
1293.0,0.0344768,614.447,2522.19,2521.22,0.0280917,0.0278174
1296.0,0.0115613,614.612,2526.56,2525.59,0.0261894,0.0259151
1299.0,0.0237384,614.777,2530.93,2529.95,0.0261894,0.0259151
1302.0,0.0111492,614.942,2535.29,2534.3,0.0117028,0.0114285
1305.0,0.0204966,615.107,2539.66,2538.66,0.0118678,0.0115935
1308.0,0.0202531,615.272,2544.02,2543.01,0.0266511,0.0263767
1311.0,0.00621595,615.437,2548.37,2547.37,0.0118283,0.0115539
1314.0,0.00911751,615.602,2552.73,2551.72,0.00911751,0.00884312
1317.0,0.0157883,615.767,2557.08,2556.06,0.0157883,0.0155139
1320.0,0.0311801,615.932,2561.43,2560.41,0.0311801,0.0309057
1323.0,0.00951148,616.097,2565.78,2564.75,0.00950968,0.00923524
1326.0,0.00486821,616.262,2570.12,2569.09,0.00778141,0.00750696
1329.0,0.0246432,616.427,2574.47,2573.43,0.0189205,0.018646
1332.0,0.0130983,616.592,2578.81,2577.76,0.0130983,0.0128238
1335.0,0.0158799,616.757,2583.15,2582.09,0.0158799,0.0156054
1338.0,0.0184632,616.922,2587.48,2586.42,0.0184632,0.0181887
1341.0,0.00517394,617.087,2591.82,2590.75,0.0172678,0.0169933
1344.0,0.021986,617.252,2596.15,2595.08,0.0217699,0.0214953
1347.0,0.00418369,617.417,2600.48,2599.4,0.00418369,0.00390912
1350.0,0.00292973,617.582,2604.8,2603.72,0.00292973,0.00265515
1353.0,0.0158611,617.747,2609.13,2608.04,0.0142732,0.0139986
1356.0,0.0233684,617.912,2613.45,2612.36,0.0244817,0.0242071
1359.0,0.0155463,618.077,2617.77,2616.67,0.0230541,0.0227795
1362.0,0.0285703,618.242,2622.09,2620.99,0.0285703,0.0282957
1365.0,0.0170725,618.407,2626.4,2625.3,0.0170725,0.0167979
1368.0,0.014561,618.572,2630.72,2629.6,0.0112522,0.0109775
1371.0,0.0,618.737,2635.03,2633.91,0.0,-0.000274671
1374.0,0.0,618.902,2639.34,2638.21,0.00204471,0.00177002
1377.0,0.0354576,619.067,2643.64,2642.51,0.0187041,0.0184294
1380.0,0.00776512,619.232,2647.95,2646.81,0.0112832,0.0110085
1383.0,0.0247007,619.397,2652.25,2651.11,0.0247007,0.024426
1386.0,0.025298,619.562,2656.55,2655.4,0.025298,0.0250232
1389.0,0.0319081,619.727,2660.84,2659.69,0.0188878,0.018613
1392.0,0.0158583,619.892,2665.14,2663.98,0.0172708,0.016996
1395.0,0.0181247,620.057,2669.43,2668.27,0.0181247,0.0178499
1398.0,0.0200508,620.222,2673.72,2672.55,0.0205914,0.0203166
1401.0,0.0175178,620.387,2678.01,2676.84,0.0214372,0.0211624
1404.0,0.0396249,620.551,2682.29,2681.12,0.0256418,0.025367
1407.0,0.0,620.716,2686.58,2685.39,0.00763827,0.00736341
1410.0,0.0144918,620.881,2690.86,2689.67,0.0126423,0.0123674
1413.0,0.0309375,621.046,2695.14,2693.94,0.0309375,0.0306626
1416.0,0.0146294,621.211,2699.41,2698.21,0.0146294,0.0143545
1419.0,0.00261037,621.376,2703.69,2702.48,0.0108906,0.0106157
1422.0,0.0284769,621.541,2707.96,2706.75,0.0212754,0.0210004
1425.0,0.0,621.706,2712.23,2711.01,0.00476533,0.00449036
1428.0,0.00242618,621.871,2716.5,2715.27,0.00242618,0.00215119
1431.0,0.0111782,622.036,2720.76,2719.53,0.0111782,0.0109032
1434.0,0.0167299,622.201,2725.03,2723.79,0.0145495,0.0142745
1437.0,0.0357661,622.366,2729.29,2728.05,0.0255844,0.0253093
1440.0,0.00135008,622.531,2733.54,2732.3,0.0133485,0.0130734
1443.0,0.0321191,622.696,2737.8,2736.55,0.0239646,0.0236895
1446.0,0.021554,622.861,2742.05,2740.8,0.0241132,0.0238381
1449.0,0.0330763,623.026,2746.31,2745.04,0.0241132,0.0238381
1452.0,0.0,623.191,2750.56,2749.29,0.00685714,0.00658199
1455.0,0.012082,623.356,2754.8,2753.53,0.0156032,0.015328
1458.0,0.0183992,623.521,2759.05,2757.77,0.0183992,0.018124
1461.0,0.0197883,623.686,2763.29,2762.01,0.0212469,0.0209717
1464.0,0.0422261,623.851,2767.53,2766.24,0.0284508,0.0281756
1467.0,0.00367419,624.016,2771.77,2770.47,0.0139368,0.0136616
1470.0,0.0224674,624.181,2776,2774.7,0.0224674,0.0221921
1473.0,0.0272864,624.346,2780.24,2778.93,0.0245977,0.0243224
1476.0,0.0275469,624.511,2784.47,2783.16,0.0235118,0.0232365
1479.0,0.0104187,624.676,2788.7,2787.38,0.013211,0.0129357
1482.0,0.0156536,624.841,2792.93,2791.6,0.0156536,0.0153783
1485.0,0.0292502,625.006,2797.15,2795.82,0.0140975,0.0138221
1488.0,0.0104504,625.171,2801.37,2800.04,0.010391,0.0101156
1491.0,0.0190342,625.336,2805.59,2804.25,0.010391,0.0101156
1494.0,0.0,625.501,2809.81,2808.47,0.0114796,0.0112042
1497.0,0.0321013,625.666,2814.03,2812.68,0.0301856,0.0299102
1500.0,0.0319223,625.831,2818.24,2816.89,0.0301856,0.0299101
1503.0,0.014281,625.996,2822.45,2821.09,0.013628,0.0133525
1506.0,0.00493428,626.161,2826.66,2825.3,0.00866047,0.00838498
1509.0,0.0186799,626.326,2830.87,2829.5,0.0179997,0.0177242
1512.0,0.0249388,626.491,2835.07,2833.7,0.0211062,0.0208307
1515.0,0.0131065,626.656,2839.27,2837.89,0.0131065,0.0128309
1518.0,0.0175743,626.821,2843.48,2842.09,0.0141568,0.0138812
1521.0,0.0170152,626.986,2847.67,2846.28,0.0258811,0.0256055
1524.0,0.0276643,627.151,2851.87,2850.47,0.0276643,0.0273887
1527.0,0.0263197,627.316,2856.06,2854.66,0.0197001,0.0194245
1530.0,0.00634851,627.481,2860.25,2858.85,0.0175691,0.0172934
1533.0,0.0168952,627.646,2864.44,2863.03,0.00825367,0.007978
1536.0,0.0105457,627.811,2868.63,2867.21,0.0105457,0.01027
1539.0,0.0380309,627.976,2872.82,2871.39,0.0263112,0.0260355
1542.0,0.0229797,628.141,2877,2875.57,0.0247393,0.0244636
1545.0,0.0262973,628.306,2881.18,2879.74,0.0285749,0.0282991
1548.0,0.0164009,628.471,2885.36,2883.92,0.0190181,0.0187423
1551.0,0.0,628.636,2889.53,2888.09,0.0190181,0.0187423
1554.0,0.0442923,628.801,2893.71,2892.26,0.0442923,0.0440165
1557.0,0.0410033,628.966,2897.88,2896.42,0.0410033,0.0407275
1560.0,0.00444038,629.131,2902.05,2900.59,0.0139083,0.0136324
1563.0,0.0295692,629.296,2906.21,2904.75,0.0274746,0.0271987
1566.0,0.0226724,629.461,2910.38,2908.91,0.0226724,0.0223965
1569.0,0.0,629.626,2914.54,2913.06,0.0136146,0.0133387
1572.0,0.0408113,629.791,2918.7,2917.22,0.0284305,0.0281545
1575.0,0.0422743,629.956,2922.86,2921.37,0.0244393,0.0241633
1578.0,0.00156055,630.121,2927.02,2925.52,0.00202788,0.00175189
1581.0,0.00268559,630.286,2931.17,2929.67,0.0135466,0.0132706
1584.0,0.0134752,630.451,2935.32,2933.82,0.0138892,0.0136132
1587.0,0.00902446,630.616,2939.47,2937.96,0.0125314,0.0122554
1590.0,0.0320761,630.781,2943.62,2942.11,0.0212436,0.0209675
1593.0,0.0,630.946,2947.77,2946.25,0.0124064,0.0121303
1596.0,0.0279892,631.111,2951.91,2950.38,0.0279892,0.0277131
1599.0,0.0663262,631.276,2956.05,2954.52,0.048063,0.0477869
1602.0,0.029975,631.441,2960.19,2958.65,0.048063,0.0477869
1605.0,0.08532,631.606,2964.33,2962.79,0.0821166,0.0818405
1608.0,0.0867804,631.771,2968.46,2966.92,0.0867804,0.0865043
1611.0,0.100193,631.936,2972.6,2971.04,0.097056,0.0967798
1614.0,0.0852198,632.101,2976.73,2975.17,0.0829062,0.08263
1617.0,0.0253493,632.266,2980.85,2979.29,0.0337621,0.0334859
1620.0,0.0383088,632.431,2984.98,2983.41,0.0393281,0.0390519
1623.0,0.0224022,632.596,2989.1,2987.53,0.02246,0.0221838
1626.0,0.00354131,632.761,2993.23,2991.65,0.00611887,0.00584265
1629.0,0.000236515,632.926,2997.35,2995.76,0.00611887,0.00584264
1632.0,0.0350019,633.091,3001.46,2999.87,0.0308552,0.030579
1635.0,0.0541373,633.256,3005.58,3003.98,0.0309202,0.0306439
1638.0,0.0244052,633.421,3009.69,3008.09,0.0296042,0.0293279
1641.0,0.0288783,633.585,3013.8,3012.2,0.0288783,0.028602
1644.0,0.0373478,633.75,3017.91,3016.3,0.0259483,0.025672
1647.0,0.0211087,633.915,3022.02,3020.4,0.0236402,0.0233639
1650.0,0.0,634.08,3026.12,3024.5,0.000106813,-0.000169515
1653.0,0.00353246,634.245,3030.23,3028.6,0.00353246,0.00325612
1656.0,0.0202096,634.41,3034.33,3032.69,0.0202096,0.0199332
1659.0,0.0198854,634.575,3038.42,3036.79,0.0217158,0.0214394
1662.0,0.0366118,634.74,3042.52,3040.88,0.0336054,0.033329
1665.0,0.0239776,634.905,3046.61,3044.97,0.0239776,0.0237012
1668.0,0.0136818,635.07,3050.71,3049.05,0.0191466,0.0188702
1671.0,0.0396882,635.235,3054.8,3053.14,0.0219965,0.0217201
1674.0,0.00461441,635.4,3058.88,3057.22,0.0219965,0.0217201
1677.0,0.0229757,635.565,3062.97,3061.3,0.0229757,0.0226993
1680.0,0.0289527,635.73,3067.05,3065.38,0.0281275,0.027851
1683.0,0.0257802,635.895,3071.13,3069.45,0.0198648,0.0195883
1686.0,0.0112527,636.06,3075.21,3073.53,0.0112527,0.0109762
1689.0,0.00713664,636.225,3079.29,3077.6,0.0103356,0.0100591
1692.0,0.0333509,636.39,3083.36,3081.67,0.0252106,0.0249341
1695.0,0.0,636.555,3087.44,3085.74,0.00144254,0.00116603
1698.0,0.00395454,636.72,3091.51,3089.8,0.00395454,0.00367802
1701.0,0.00862802,636.885,3095.58,3093.87,0.00862802,0.0083515
1704.0,0.0143308,637.05,3099.64,3097.93,0.0108839,0.0106074
1707.0,0.0220955,637.215,3103.71,3101.99,0.0220955,0.021819
1710.0,0.0140816,637.38,3107.77,3106.04,0.0289341,0.0286576
1713.0,0.00373071,637.545,3111.83,3110.1,0.0126401,0.0123636
1716.0,0.00978286,637.71,3115.89,3114.15,0.00978286,0.00950632
1719.0,0.0243695,637.875,3119.94,3118.2,0.0130763,0.0127998
1722.0,0.0153585,638.04,3124,3122.25,0.0153585,0.015082
1725.0,0.0248823,638.205,3128.05,3126.3,0.0312034,0.0309268
1728.0,0.0213839,638.37,3132.1,3130.34,0.0213839,0.0211073
1731.0,0.0,638.535,3136.15,3134.38,0.00785601,0.00757945
1734.0,0.0202991,638.7,3140.19,3138.42,0.0248029,0.0245263
1737.0,0.037403,638.865,3144.24,3142.46,0.037403,0.0371264
1740.0,0.0342703,639.03,3148.28,3146.5,0.0342703,0.0339937
1743.0,0.0137638,639.195,3152.32,3150.53,0.029176,0.0288994
1746.0,0.0369118,639.36,3156.35,3154.56,0.0355848,0.0353082
1749.0,0.0463585,639.525,3160.39,3158.59,0.0463585,0.0460819
1752.0,0.0465371,639.69,3164.42,3162.62,0.0465371,0.0462605
1755.0,0.0430478,639.855,3168.45,3166.65,0.0430478,0.0427712
1758.0,0.0218465,640.02,3172.48,3170.67,0.0258281,0.0255515
1761.0,0.0144041,640.185,3176.51,3174.69,0.0144041,0.0141275
1764.0,0.03427,640.35,3180.53,3178.71,0.03427,0.0339934
1767.0,0.0370961,640.515,3184.55,3182.73,0.0370961,0.0368195
1770.0,0.0197896,640.68,3188.58,3186.74,0.0197896,0.019513
1773.0,0.0,640.845,3192.59,3190.76,0.00138456,0.00110791
1776.0,0.0132494,641.01,3196.61,3194.77,0.0132494,0.0129728
1779.0,0.035715,641.175,3200.62,3198.78,0.029016,0.0287393
1782.0,0.0480484,641.34,3204.64,3202.78,0.0317938,0.0315171
1785.0,0.00140869,641.505,3208.65,3206.79,0.00677459,0.00649793
1788.0,0.0,641.67,3212.65,3210.79,0.00677459,0.00649793
1791.0,0.0320989,641.835,3216.66,3214.79,0.0187627,0.018486
1794.0,0.0501731,642,3220.66,3218.79,0.0393748,0.0390981
1797.0,0.0318898,642.165,3224.67,3222.79,0.0393748,0.0390981
1800.0,0.0106894,642.33,3228.67,3226.78,0.0106894,0.0104127
1803.0,0.0127546,642.495,3232.66,3230.78,0.0127546,0.0124779
1806.0,0.0612815,642.66,3236.66,3234.77,0.034327,0.0340503
1809.0,0.0,642.825,3240.65,3238.76,0.0187802,0.0185035
1812.0,0.0295721,642.99,3244.65,3242.74,0.0295721,0.0292954
1815.0,0.0547307,643.155,3248.64,3246.73,0.0373439,0.0370672
1818.0,0.024603,643.32,3252.62,3250.71,0.0285077,0.028231
1821.0,0.0331787,643.485,3256.61,3254.69,0.0285077,0.028231
1824.0,0.0,643.65,3260.59,3258.67,0.00532558,0.0050489
1827.0,0.016907,643.815,3264.57,3262.64,0.016907,0.0166303
1830.0,0.0138781,643.98,3268.55,3266.62,0.0175262,0.0172495
1833.0,0.0345635,644.145,3272.53,3270.59,0.0345635,0.0342868
1836.0,0.0103683,644.31,3276.51,3274.56,0.0115707,0.011294
1839.0,0.0111628,644.475,3280.48,3278.53,0.0111628,0.0108861
1842.0,0.0339161,644.64,3284.45,3282.5,0.023704,0.0234273
1845.0,0.0306426,644.805,3288.42,3286.46,0.0259289,0.0256522
1848.0,0.010476,644.97,3292.39,3290.42,0.0239599,0.0236832
1851.0,0.0272087,645.135,3296.35,3294.38,0.0190475,0.0187708
1854.0,0.0197218,645.3,3300.31,3298.34,0.0197218,0.0194451
1857.0,0.0366671,645.465,3304.28,3302.3,0.0332924,0.0330157
1860.0,0.0075227,645.63,3308.23,3306.25,0.0021973,0.00192057
1863.0,0.0146601,645.795,3312.19,3310.2,0.00995959,0.00968286
1866.0,0.0,645.96,3316.15,3314.15,0.00309758,0.00282084
1869.0,0.00594534,646.125,3320.1,3318.1,0.00594534,0.0056686
1872.0,0.0162697,646.29,3324.05,3322.05,0.0181115,0.0178347
1875.0,0.0266162,646.455,3328,3325.99,0.0197499,0.0194731
1878.0,0.0230952,646.619,3331.95,3329.93,0.0197499,0.0194731
1881.0,0.0116509,646.784,3335.89,3333.87,0.0189133,0.0186365
1884.0,0.0343341,646.949,3339.83,3337.81,0.0164506,0.0161738
1887.0,0.00479573,647.114,3343.78,3341.74,0.00656272,0.00628593
1890.0,0.00766056,647.279,3347.71,3345.68,0.00766056,0.00738376
1893.0,0.0217785,647.444,3351.65,3349.61,0.0217785,0.0215017
1896.0,0.0104733,647.609,3355.59,3353.54,0.0184706,0.0181938
1899.0,0.0311692,647.774,3359.52,3357.47,0.0311692,0.0308924
1902.0,0.0340827,647.939,3363.45,3361.39,0.0379696,0.0376928
1905.0,0.0350213,648.104,3367.38,3365.32,0.0338004,0.0335236
1908.0,0.0,648.269,3371.31,3369.24,0.000448943,0.0001721
1911.0,0.0108354,648.434,3375.23,3373.16,0.0108354,0.0105585
1914.0,0.0,648.599,3379.15,3377.08,0.0056934,0.00541654
1917.0,0.0301323,648.764,3383.07,3380.99,0.0301323,0.0298554
1920.0,0.0443185,648.929,3386.99,3384.91,0.0438321,0.0435552
1923.0,0.0206364,649.094,3390.91,3388.82,0.0210134,0.0207365
1926.0,0.0147552,649.259,3394.83,3392.73,0.0147552,0.0144783
1929.0,0.00874733,649.424,3398.74,3396.64,0.0141657,0.0138888
1932.0,0.0280998,649.589,3402.65,3400.54,0.0280998,0.0278229
1935.0,0.0173849,649.754,3406.56,3404.45,0.0101866,0.00990967
1938.0,0.00233795,649.919,3410.47,3408.35,0.0091729,0.00889596
1941.0,0.021875,650.084,3414.37,3412.25,0.00608975,0.0058128
1944.0,0.0136189,650.249,3418.27,3416.15,0.010117,0.00984004
1947.0,0.0250486,650.414,3422.17,3420.04,0.0250486,0.0247716
1950.0,0.0114287,650.579,3426.07,3423.94,0.0114287,0.0111517
1953.0,0.00541255,650.744,3429.97,3427.83,0.00541255,0.00513556
1956.0,0.0314742,650.909,3433.87,3431.72,0.0314742,0.0311972
1959.0,0.0047941,651.074,3437.76,3435.61,0.0047941,0.0045171
1962.0,0.0024033,651.239,3441.65,3439.49,0.00195315,0.00167615
1965.0,0.0461345,651.404,3445.54,3443.38,0.0273738,0.0270968
1968.0,0.0103969,651.569,3449.43,3447.26,0.0206544,0.0203774
1971.0,0.027544,651.734,3453.31,3451.14,0.027544,0.027267
1974.0,0.0128001,651.899,3457.2,3455.02,0.0128001,0.0125231
1977.0,0.0308579,652.064,3461.08,3458.89,0.0121544,0.0118774
1980.0,0.00333625,652.229,3464.96,3462.77,0.00860458,0.00832753
1983.0,0.00181395,652.394,3468.83,3466.64,0.0104524,0.0101753
1986.0,0.0242334,652.559,3472.71,3470.51,0.0104524,0.0101753
1989.0,0.0150347,652.724,3476.58,3474.38,0.0185153,0.0182382
1992.0,0.0318914,652.889,3480.45,3478.25,0.028409,0.0281319
1995.0,0.0199841,653.054,3484.32,3482.11,0.0199841,0.019707
1998.0,0.0175406,653.219,3488.19,3485.97,0.0172752,0.0169981
2001.0,0.0,653.384,3492.06,3489.83,0.00443275,0.00415567
2004.0,0.0188894,653.549,3495.92,3493.69,0.0172302,0.0169531
2007.0,0.0178317,653.714,3499.78,3497.55,0.0194316,0.0191545
2010.0,0.029158,653.879,3503.64,3501.4,0.029158,0.0288809
2013.0,0.0304139,654.044,3507.5,3505.26,0.00741072,0.00713364
2016.0,0.0,654.209,3511.36,3509.11,0.00741072,0.00713364
2019.0,0.0291526,654.374,3515.21,3512.96,0.0262437,0.0259666
2022.0,0.0177285,654.539,3519.06,3516.8,0.0216122,0.0213351
2025.0,0.0276331,654.704,3522.91,3520.65,0.0214592,0.0211821
2028.0,0.0,654.869,3526.76,3524.49,0.00144961,0.00117252
2031.0,0.00283828,655.034,3530.61,3528.33,0.00283828,0.00256118
2034.0,0.0113484,655.199,3534.45,3532.17,0.0113484,0.0110713
2037.0,0.00717496,655.364,3538.29,3536.01,0.00717496,0.00689786
2040.0,0.0283276,655.529,3542.13,3539.85,0.0283276,0.0280505
2043.0,0.0187792,655.694,3545.97,3543.68,0.0187792,0.0185021
2046.0,0.000177023,655.859,3549.81,3547.51,0.000177023,-0.000100071
2047.0,0.0,655.914,3551.09,3548.79,0.0,-0.000277094