File: data/processed/processed_data/2024-09-03/2024-09-03_aluminumfoil2cmaway_n_y_y_solid_1000_0_5.csv
Pixels #,Intensity (a.u.),Wavelength (nm),Raman shift (cm-1),Raman shift (cm-1) adjusted,Filtered Intensity (a.u.),Baselined Filtered Intensity (a.u.)
0.0,0.000576704,543.337,392.223,393.994,0.000576704,0.000424408
3.0,0.00209327,543.502,397.81,399.573,0.00176049,0.00160819
6.0,0.00216326,543.667,403.394,405.15,0.00216326,0.00201096
9.0,0.00445798,543.832,408.974,410.723,0.00445798,0.00430568
12.0,0.00219326,543.997,414.551,416.293,0.00219326,0.00204096
15.0,0.00242198,544.162,420.125,421.859,0.00261733,0.00246503
18.0,0.00177486,544.327,425.695,427.422,0.00177486,0.00162256
21.0,0.0,544.492,431.261,432.981,0.00112777,0.000975474
24.0,0.00506138,544.657,436.825,438.537,0.00214389,0.00199159
27.0,0.000828488,544.822,442.385,444.09,0.00227201,0.00211971
30.0,0.0040664,544.987,447.941,449.64,0.00342554,0.00327324
33.0,0.0030623,545.152,453.494,455.186,0.0030623,0.00291
36.0,0.00373363,545.317,459.044,460.728,0.00353829,0.00338599
39.0,0.0027997,545.482,464.591,466.268,0.00353829,0.00338599
42.0,0.000944115,545.647,470.134,471.804,0.000944115,0.000791818
45.0,0.00232037,545.812,475.674,477.337,0.00232037,0.00216807
48.0,0.00290924,545.977,481.21,482.866,0.00290924,0.00275694
51.0,0.0015602,546.142,486.743,488.392,0.0027444,0.0025921
54.0,0.00240537,546.307,492.273,493.915,0.00240537,0.00225307
57.0,0.000830428,546.472,497.8,499.434,0.000830428,0.000678131
60.0,0.00241711,546.637,503.323,504.95,0.00138264,0.00123034
63.0,0.00167524,546.802,508.843,510.463,0.00167524,0.00152294
66.0,0.00120787,546.967,514.359,515.972,0.00132039,0.00116809
69.0,0.0022082,547.132,519.872,521.478,0.0022082,0.0020559
72.0,0.00516119,547.297,525.382,526.981,0.00409656,0.00394426
75.0,0.00204686,547.462,530.888,532.48,0.00341049,0.00325819
78.0,0.000952675,547.627,536.392,537.976,0.000952675,0.000800379
81.0,0.00169551,547.792,541.891,543.469,0.00169551,0.00154321
84.0,0.00133951,547.957,547.388,548.958,0.0022527,0.0021004
87.0,0.00214508,548.122,552.881,554.444,0.0031941,0.0030418
90.0,0.00337761,548.287,558.371,559.927,0.00307466,0.00292236
93.0,0.00328053,548.452,563.858,565.407,0.00240855,0.00225625
96.0,0.00189549,548.617,569.341,570.883,0.00187195,0.00171965
99.0,0.00102296,548.782,574.821,576.356,0.00129665,0.00114436
102.0,0.000678235,548.947,580.298,581.826,0.000927479,0.000775184
105.0,0.00205765,549.112,585.771,587.292,0.00205765,0.00190536
108.0,0.00127936,549.277,591.241,592.755,0.00127936,0.00112707
111.0,0.00116009,549.442,596.708,598.215,0.00116009,0.00100779
114.0,0.0012582,549.607,602.172,603.671,0.0025556,0.0024033
117.0,0.003329,549.772,607.632,609.125,0.00319072,0.00303842
120.0,0.00448964,549.937,613.089,614.575,0.00319072,0.00303842
123.0,0.00254421,550.102,618.543,620.021,0.00372319,0.00357089
126.0,0.0040806,550.267,623.993,625.465,0.00400607,0.00385377
129.0,0.00305929,550.432,629.44,630.905,0.00341473,0.00326243
132.0,0.00033325,550.597,634.884,636.342,0.0008357,0.000683401
135.0,0.0,550.762,640.325,641.776,0.000116681,-3.56175e-05
138.0,0.00326408,550.927,645.762,647.206,0.00326408,0.00311178
141.0,0.00457365,551.092,651.197,652.633,0.00457365,0.00442135
144.0,0.00427878,551.257,656.627,658.057,0.00386509,0.00371279
147.0,0.00300058,551.422,662.055,663.478,0.0031157,0.0029634
150.0,0.00308346,551.587,667.48,668.895,0.00284628,0.00269398
153.0,0.000251833,551.752,672.901,674.309,0.000751018,0.000598715
156.0,0.00176899,551.917,678.319,679.72,0.00169486,0.00154256
159.0,0.00180294,552.082,683.733,685.128,0.00169486,0.00154256
162.0,0.00255403,552.247,689.145,690.533,0.00255403,0.00240173
165.0,0.00173646,552.412,694.553,695.934,0.00173646,0.00158416
168.0,0.0,552.577,699.958,701.332,0.00157592,0.00142362
171.0,0.00454464,552.742,705.36,706.727,0.00345631,0.003304
174.0,0.00110852,552.907,710.758,712.118,0.00345631,0.003304
177.0,0.0033121,553.072,716.154,717.507,0.00237728,0.00222497
180.0,0.000706006,553.237,721.546,722.892,0.000706006,0.000553698
183.0,0.000791943,553.402,726.935,728.274,0.000791943,0.000639634
186.0,0.00243044,553.567,732.32,733.652,0.00243044,0.00227813
189.0,0.00524729,553.732,737.703,739.028,0.00429714,0.00414483
192.0,0.003742,553.897,743.082,744.4,0.00317029,0.00301798
195.0,0.00140733,554.062,748.458,749.769,0.00160667,0.00145436
198.0,0.00167887,554.227,753.831,755.135,0.00167887,0.00152656
201.0,0.0033481,554.392,759.201,760.498,0.00279478,0.00264246
204.0,0.00310992,554.557,764.567,765.858,0.00262056,0.00246824
207.0,0.00293579,554.722,769.93,771.214,0.00247694,0.00232462
210.0,0.00229165,554.887,775.29,776.567,0.00229165,0.00213933
213.0,0.00428729,555.052,780.647,781.917,0.00428729,0.00413497
216.0,0.00623712,555.217,786.001,787.264,0.00515455,0.00500223
219.0,0.00285541,555.382,791.352,792.608,0.00367522,0.0035229
222.0,0.00429247,555.546,796.699,797.948,0.00367522,0.0035229
225.0,0.00400828,555.711,802.043,803.285,0.0039667,0.00381437
228.0,0.0032083,555.876,807.384,808.62,0.00318578,0.00303345
231.0,0.00217321,556.041,812.722,813.951,0.00284649,0.00269416
234.0,0.00327444,556.206,818.057,819.278,0.00284649,0.00269416
237.0,0.00147338,556.371,823.388,824.603,0.00151542,0.00136309
240.0,0.00454297,556.536,828.716,829.924,0.00441359,0.00426126
243.0,0.00404192,556.701,834.042,835.243,0.0041933,0.00404097
246.0,0.00448691,556.866,839.364,840.558,0.00448691,0.00433458
249.0,0.0051403,557.031,844.682,845.87,0.0051403,0.00498796
252.0,0.00476127,557.196,849.998,851.179,0.00509147,0.00493913
255.0,0.00642083,557.361,855.311,856.485,0.00520499,0.00505265
258.0,0.00393299,557.526,860.62,861.787,0.00430348,0.00415114
261.0,0.00461291,557.691,865.927,867.087,0.00409774,0.0039454
264.0,0.00445052,557.856,871.23,872.383,0.00425578,0.00410344
267.0,0.00461771,558.021,876.53,877.676,0.00461771,0.00446537
270.0,0.00404581,558.186,881.827,882.966,0.00404581,0.00389347
273.0,0.00436252,558.351,887.12,888.253,0.00436252,0.00421018
276.0,0.0032754,558.516,892.411,893.537,0.00447962,0.00432727
279.0,0.00288374,558.681,897.698,898.818,0.00288374,0.00273139
282.0,0.00428993,558.846,902.983,904.095,0.00282561,0.00267326
285.0,0.00315395,559.011,908.264,909.37,0.00315395,0.0030016
288.0,0.00178602,559.176,913.542,914.641,0.00291645,0.0027641
291.0,0.0052979,559.341,918.817,919.909,0.00427122,0.00411887
294.0,0.00534902,559.506,924.089,925.174,0.00471297,0.00456062
297.0,0.00552219,559.671,929.358,930.436,0.00482204,0.00466969
300.0,0.00450209,559.836,934.624,935.695,0.00482204,0.00466968
303.0,0.00247491,560.001,939.886,940.951,0.00342195,0.00326959
306.0,0.00618432,560.166,945.146,946.204,0.00493056,0.0047782
309.0,0.00332405,560.331,950.402,951.454,0.00457891,0.00442655
312.0,0.00502019,560.496,955.656,956.7,0.00322633,0.00307397
315.0,0.00208984,560.661,960.906,961.944,0.00208984,0.00193748
318.0,0.00382263,560.826,966.153,967.184,0.00332272,0.00317036
321.0,0.00297969,560.991,971.397,972.421,0.00406184,0.00390948
324.0,0.0043676,561.156,976.638,977.655,0.00406184,0.00390947
327.0,0.00601797,561.321,981.876,982.887,0.00391775,0.00376538
330.0,0.002465,561.486,987.111,988.115,0.0028684,0.00271603
333.0,0.00457311,561.651,992.342,993.34,0.00425934,0.00410697
336.0,0.00285731,561.816,997.571,998.562,0.00425934,0.00410697
339.0,0.00373532,561.981,1002.8,1003.78,0.0036145,0.00346213
342.0,0.00531851,562.146,1008.02,1009,0.00329031,0.00313794
345.0,0.00315712,562.311,1013.24,1014.21,0.00487403,0.00472166
348.0,0.00425505,562.476,1018.45,1019.42,0.00425505,0.00410268
351.0,0.00479209,562.641,1023.67,1024.63,0.00418653,0.00403415
354.0,0.00347293,562.806,1028.88,1029.83,0.00347293,0.00332055
357.0,0.00248647,562.971,1034.09,1035.03,0.00269147,0.00253909
360.0,0.00456706,563.136,1039.29,1040.23,0.00415254,0.00400016
363.0,0.00242396,563.301,1044.49,1045.42,0.00358722,0.00343484
366.0,0.00312208,563.466,1049.69,1050.61,0.00332707,0.00317469
369.0,0.00400025,563.631,1054.88,1055.8,0.00405161,0.00389923
372.0,0.00519581,563.796,1060.08,1060.99,0.00431205,0.00415967
375.0,0.00288484,563.961,1065.27,1066.17,0.00413735,0.00398496
378.0,0.00529806,564.126,1070.45,1071.35,0.00516429,0.0050119
381.0,0.00475103,564.291,1075.63,1076.52,0.00475103,0.00459864
384.0,0.00210741,564.456,1080.81,1081.7,0.00280449,0.0026521
387.0,0.00458166,564.621,1085.99,1086.87,0.0039657,0.00381331
390.0,0.00370198,564.786,1091.16,1092.03,0.0039657,0.00381331
393.0,0.00163819,564.951,1096.34,1097.2,0.00163819,0.0014858
396.0,0.00139634,565.116,1101.5,1102.36,0.00144262,0.00129023
399.0,0.0035532,565.281,1106.67,1107.52,0.0035532,0.00340081
402.0,0.0049349,565.446,1111.83,1112.67,0.00501679,0.00486439
405.0,0.00377445,565.611,1116.99,1117.82,0.00377445,0.00362205
408.0,0.00286425,565.776,1122.14,1122.97,0.00303261,0.00288021
411.0,0.0029642,565.941,1127.3,1128.12,0.00303261,0.00288021
414.0,0.00171526,566.106,1132.45,1133.26,0.00171526,0.00156286
417.0,0.000731813,566.271,1137.59,1138.4,0.00107184,0.000919438
420.0,0.00189988,566.436,1142.74,1143.54,0.00303388,0.00288148
423.0,0.00284517,566.601,1147.88,1148.67,0.00284517,0.00269276
426.0,0.00292375,566.766,1153.02,1153.81,0.00292375,0.00277134
429.0,0.00434818,566.931,1158.15,1158.93,0.00434818,0.00419577
432.0,0.00438709,567.096,1163.28,1164.06,0.00438709,0.00423468
435.0,0.00557043,567.261,1168.41,1169.18,0.00537639,0.00522398
438.0,0.000360249,567.426,1173.54,1174.3,0.00283094,0.00267853
441.0,0.00402472,567.591,1178.66,1179.42,0.00395326,0.00380085
444.0,0.00330985,567.756,1183.78,1184.53,0.00344845,0.00329603
447.0,0.00501507,567.921,1188.9,1189.64,0.00452194,0.00436952
450.0,0.00156885,568.086,1194.01,1194.75,0.00288544,0.00273302
453.0,0.00475116,568.251,1199.12,1199.85,0.0043458,0.00419338
456.0,0.00614205,568.416,1204.23,1204.95,0.00509098,0.00493856
459.0,0.0032055,568.58,1209.33,1210.05,0.0051416,0.00498918
462.0,0.00623217,568.745,1214.44,1215.15,0.00518666,0.00503424
465.0,0.00296603,568.91,1219.53,1220.24,0.00283606,0.00268364
468.0,0.00370386,569.075,1224.63,1225.33,0.00369041,0.00353799
471.0,0.00302566,569.24,1229.72,1230.42,0.00369041,0.00353799
474.0,0.0029609,569.405,1234.81,1235.5,0.00340895,0.00325652
477.0,0.00227359,569.57,1239.9,1240.58,0.00320621,0.00305378
480.0,0.0045618,569.735,1244.99,1245.66,0.0045618,0.00440937
483.0,0.003963,569.9,1250.07,1250.73,0.00454954,0.00439711
486.0,0.00460629,570.065,1255.14,1255.8,0.00367303,0.0035206
489.0,0.00372063,570.23,1260.22,1260.87,0.00366511,0.00351268
492.0,0.00333242,570.395,1265.29,1265.94,0.00348684,0.00333441
495.0,0.00306324,570.56,1270.36,1271,0.00348684,0.00333441
498.0,0.00393238,570.725,1275.43,1276.06,0.00393238,0.00377995
501.0,0.00187791,570.89,1280.49,1281.12,0.00230699,0.00215456
504.0,0.00106857,571.055,1285.55,1286.17,0.00106857,0.000916135
507.0,0.00144334,571.22,1290.61,1291.22,0.00144334,0.0012909
510.0,0.00205616,571.385,1295.67,1296.27,0.00196277,0.00181033
513.0,0.00308708,571.55,1300.72,1301.32,0.00308708,0.00293464
516.0,0.00227166,571.715,1305.77,1306.36,0.00264277,0.00249033
519.0,0.00377258,571.88,1310.81,1311.4,0.00394469,0.00379225
522.0,0.00511788,572.045,1315.86,1316.44,0.00451602,0.00436358
525.0,0.00353956,572.21,1320.9,1321.47,0.00373117,0.00357873
528.0,0.00495812,572.375,1325.94,1326.5,0.0039339,0.00378146
531.0,0.00169521,572.54,1330.97,1331.53,0.00175506,0.00160262
534.0,0.0039866,572.705,1336,1336.56,0.00421921,0.00406677
537.0,0.00456593,572.87,1341.03,1341.58,0.00421921,0.00406677
540.0,0.00255124,573.035,1346.06,1346.6,0.00352053,0.00336809
543.0,0.0036677,573.2,1351.08,1351.61,0.0040412,0.00388876
546.0,0.00690213,573.365,1356.1,1356.63,0.00588518,0.00573274
549.0,0.00182955,573.53,1361.12,1361.64,0.00262677,0.00247433
552.0,0.00239366,573.695,1366.13,1366.65,0.00239366,0.00224121
555.0,0.000665878,573.86,1371.14,1371.65,0.00235236,0.00219991
558.0,0.00430317,574.025,1376.15,1376.65,0.00248242,0.00232997
561.0,0.00346348,574.19,1381.16,1381.65,0.00346348,0.00331103
564.0,0.00403679,574.355,1386.16,1386.65,0.004268,0.00411555
567.0,0.00446056,574.52,1391.16,1391.64,0.00446056,0.00430811
570.0,0.00229336,574.685,1396.16,1396.63,0.00229336,0.00214091
573.0,0.00379444,574.85,1401.15,1401.62,0.00379444,0.00364199
576.0,0.00520397,575.015,1406.14,1406.61,0.00442806,0.00427561
579.0,0.00325042,575.18,1411.13,1411.59,0.00325042,0.00309797
582.0,0.00245047,575.345,1416.12,1416.57,0.00269881,0.00254636
585.0,0.00337081,575.51,1421.1,1421.54,0.0037603,0.00360785
588.0,0.00364511,575.675,1426.08,1426.52,0.00382708,0.00367463
591.0,0.00333652,575.84,1431.06,1431.49,0.00333652,0.00318407
594.0,0.00323242,576.005,1436.03,1436.46,0.0026762,0.00252375
597.0,0.00373258,576.17,1441,1441.42,0.00373258,0.00358013
600.0,0.00325618,576.335,1445.97,1446.38,0.00355719,0.00340473
603.0,0.00157433,576.5,1450.94,1451.34,0.0020737,0.00192124
606.0,0.00218133,576.665,1455.9,1456.3,0.00218133,0.00202887
609.0,0.00588899,576.83,1460.86,1461.25,0.00472126,0.0045688
612.0,0.00424684,576.995,1465.82,1466.2,0.00430261,0.00415015
615.0,0.00391392,577.16,1470.77,1471.15,0.00412949,0.00397703
618.0,0.00287605,577.325,1475.72,1476.1,0.0038851,0.00373264
621.0,0.0038829,577.49,1480.67,1481.04,0.0038851,0.00373264
624.0,0.00424583,577.655,1485.62,1485.98,0.00400888,0.00385642
627.0,0.00192013,577.82,1490.56,1490.91,0.00254967,0.00239721
630.0,0.003339,577.985,1495.5,1495.85,0.00324026,0.0030878
633.0,0.00355853,578.15,1500.44,1500.78,0.00348115,0.00332869
636.0,0.00144649,578.315,1505.37,1505.71,0.00250744,0.00235498
639.0,0.00215738,578.48,1510.3,1510.63,0.00232111,0.00216865
642.0,0.00281946,578.645,1515.23,1515.55,0.00232111,0.00216864
645.0,0.00332895,578.81,1520.16,1520.47,0.00296472,0.00281225
648.0,0.000899572,578.975,1525.08,1525.39,0.00229013,0.00213766
651.0,0.00376813,579.14,1530,1530.31,0.00376813,0.00361566
654.0,0.00318512,579.305,1534.92,1535.22,0.00351061,0.00335814
657.0,0.00398458,579.47,1539.83,1540.13,0.00351061,0.00335814
660.0,0.00465283,579.635,1544.75,1545.03,0.00362332,0.00347085
663.0,0.00341066,579.8,1549.65,1549.93,0.00354695,0.00339448
666.0,0.00228447,579.965,1554.56,1554.83,0.00346656,0.00331409
669.0,0.00400257,580.13,1559.47,1559.73,0.00397407,0.0038216
672.0,0.00271466,580.295,1564.37,1564.63,0.00271466,0.00256219
675.0,0.00399638,580.46,1569.26,1569.52,0.00279802,0.00264555
678.0,0.00253149,580.625,1574.16,1574.41,0.00279802,0.00264555
681.0,0.00446937,580.79,1579.05,1579.29,0.00319576,0.00304329
684.0,0.00338903,580.955,1583.94,1584.18,0.00338903,0.00323655
687.0,0.00367592,581.12,1588.83,1589.06,0.00312251,0.00297003
690.0,0.00297708,581.285,1593.71,1593.94,0.00288043,0.00272795
693.0,0.00188152,581.45,1598.59,1598.81,0.00255802,0.00240554
696.0,0.00609306,581.614,1603.47,1603.68,0.00518773,0.00503525
699.0,0.00288567,581.779,1608.35,1608.55,0.00411356,0.00396108
702.0,0.00470768,581.944,1613.22,1613.42,0.00411356,0.00396108
705.0,0.00533338,582.109,1618.09,1618.28,0.00468434,0.00453186
708.0,0.0041738,582.274,1622.96,1623.15,0.0041738,0.00402132
711.0,0.0051566,582.439,1627.83,1628,0.00380562,0.00365314
714.0,0.00288313,582.604,1632.69,1632.86,0.00365718,0.0035047
717.0,0.00421386,582.769,1637.55,1637.71,0.00401035,0.00385787
720.0,0.00121409,582.934,1642.4,1642.56,0.0027228,0.00257032
723.0,0.00398224,583.099,1647.26,1647.41,0.00398224,0.00382976
726.0,0.00392138,583.264,1652.11,1652.26,0.00392138,0.00376889
729.0,0.00264592,583.429,1656.96,1657.1,0.00315653,0.00300404
732.0,0.00260341,583.594,1661.8,1661.94,0.00260341,0.00245092
735.0,0.00335437,583.759,1666.65,1666.77,0.00335437,0.00320188
738.0,0.00307994,583.924,1671.49,1671.61,0.00365885,0.00350636
741.0,0.00236912,584.089,1676.32,1676.44,0.00302738,0.00287489
744.0,0.00339174,584.254,1681.16,1681.27,0.00302738,0.00287489
747.0,0.00215909,584.419,1685.99,1686.09,0.00240813,0.00225564
750.0,0.00277279,584.584,1690.82,1690.92,0.00293027,0.00277778
753.0,0.00227871,584.749,1695.65,1695.74,0.0028842,0.00273171
756.0,0.00502871,584.914,1700.47,1700.55,0.00342775,0.00327526
759.0,0.003082,585.079,1705.29,1705.37,0.00342775,0.00327526
762.0,0.00346688,585.244,1710.11,1710.18,0.00346688,0.00331439
765.0,0.0027867,585.409,1714.92,1714.99,0.0027867,0.00263421
768.0,0.00131916,585.574,1719.74,1719.8,0.00231927,0.00216677
771.0,0.00194823,585.739,1724.55,1724.6,0.00231927,0.00216677
774.0,0.0042375,585.904,1729.35,1729.4,0.0042375,0.004085
777.0,0.00382898,586.069,1734.16,1734.2,0.00382898,0.00367648
780.0,0.0025202,586.234,1738.96,1739,0.00304948,0.00289698
783.0,0.00245656,586.399,1743.76,1743.79,0.0025442,0.0023917
786.0,0.0035801,586.564,1748.56,1748.58,0.00321827,0.00306577
789.0,0.00336696,586.729,1753.35,1753.37,0.00336696,0.00321446
792.0,0.00238172,586.894,1758.14,1758.15,0.00238172,0.00222922
795.0,0.00272709,587.059,1762.93,1762.94,0.00272709,0.00257459
798.0,0.00259029,587.224,1767.72,1767.72,0.0029887,0.0028362
801.0,0.00455314,587.389,1772.5,1772.49,0.00401381,0.00386131
804.0,0.00303695,587.554,1777.28,1777.27,0.00324282,0.00309032
807.0,0.00264995,587.719,1782.06,1782.04,0.00264995,0.00249745
810.0,0.00350809,587.884,1786.83,1786.81,0.00304035,0.00288784
813.0,0.00316384,588.049,1791.61,1791.57,0.00316384,0.00301133
816.0,0.00210548,588.214,1796.38,1796.34,0.00278379,0.00263128
819.0,0.00298809,588.379,1801.14,1801.1,0.0030994,0.00294689
822.0,0.00293075,588.544,1805.91,1805.86,0.0030994,0.00294689
825.0,0.0030779,588.709,1810.67,1810.61,0.0030779,0.00292539
828.0,0.00290768,588.874,1815.43,1815.37,0.00312052,0.00296801
831.0,0.00268864,589.039,1820.19,1820.12,0.00268864,0.00253613
834.0,0.0017616,589.204,1824.94,1824.86,0.0017616,0.00160909
837.0,0.00180505,589.369,1829.69,1829.61,0.00216439,0.00201188
840.0,0.00171729,589.534,1834.44,1834.35,0.00216439,0.00201188
843.0,0.00263969,589.699,1839.18,1839.09,0.00263969,0.00248718
846.0,0.0046516,589.864,1843.93,1843.83,0.00395731,0.0038048
849.0,0.00317531,590.029,1848.67,1848.56,0.00321039,0.00305787
852.0,0.00421068,590.194,1853.41,1853.29,0.00358356,0.00343104
855.0,0.00375983,590.359,1858.14,1858.02,0.00358356,0.00343104
858.0,0.00432524,590.524,1862.87,1862.75,0.00404301,0.00389049
861.0,0.00283071,590.689,1867.6,1867.47,0.00404301,0.00389049
864.0,0.00572468,590.854,1872.33,1872.2,0.0047343,0.00458178
867.0,0.00295757,591.019,1877.06,1876.91,0.00295757,0.00280505
870.0,0.00470715,591.184,1881.78,1881.63,0.00470715,0.00455463
873.0,0.00478741,591.349,1886.5,1886.34,0.00476748,0.00461496
876.0,0.00329601,591.514,1891.21,1891.05,0.00329601,0.00314349
879.0,0.00283308,591.679,1895.93,1895.76,0.00319389,0.00304137
882.0,0.00533346,591.844,1900.64,1900.47,0.00440641,0.00425388
885.0,0.00410761,592.009,1905.35,1905.17,0.00410761,0.00395508
888.0,0.00312592,592.174,1910.05,1909.87,0.00321984,0.00306731
891.0,0.00354197,592.339,1914.76,1914.57,0.00299943,0.0028469
894.0,0.00391227,592.504,1919.46,1919.26,0.00391227,0.00375974
897.0,0.00383091,592.669,1924.16,1923.96,0.00434838,0.00419585
900.0,0.00180251,592.834,1928.85,1928.64,0.00296658,0.00281405
903.0,0.00362551,592.999,1933.55,1933.33,0.00375848,0.00360595
906.0,0.00374867,593.164,1938.24,1938.02,0.00375848,0.00360595
909.0,0.00310889,593.329,1942.93,1942.7,0.00375107,0.00359854
912.0,0.00319241,593.494,1947.61,1947.38,0.00266381,0.00251128
915.0,0.00269,593.659,1952.29,1952.05,0.00266381,0.00251127
918.0,0.0028651,593.824,1956.97,1956.73,0.00291214,0.0027596
921.0,0.00406868,593.989,1961.65,1961.4,0.0036408,0.00348826
924.0,0.00315738,594.154,1966.33,1966.07,0.00327578,0.00312324
927.0,0.00310975,594.319,1971,1970.73,0.00327578,0.00312324
930.0,0.0051221,594.484,1975.67,1975.4,0.00458682,0.00443428
933.0,0.00230957,594.648,1980.33,1980.06,0.00230957,0.00215703
936.0,0.002027,594.813,1985,1984.72,0.00139588,0.00124334
939.0,0.00565687,594.978,1989.66,1989.37,0.00505753,0.00490499
942.0,0.00300918,595.143,1994.32,1994.03,0.00300918,0.00285664
945.0,0.00206747,595.308,1998.98,1998.68,0.00206747,0.00191493
948.0,0.00489476,595.473,2003.63,2003.33,0.00414592,0.00399338
951.0,0.00406295,595.638,2008.28,2007.97,0.00406295,0.0039104
954.0,0.00342952,595.803,2012.93,2012.62,0.00448183,0.00432928
957.0,0.0033851,595.968,2017.58,2017.26,0.00384842,0.00369587
960.0,0.00266931,596.133,2022.22,2021.89,0.0034958,0.00334325
963.0,0.005869,596.298,2026.86,2026.53,0.00507749,0.00492494
966.0,0.0032306,596.463,2031.5,2031.16,0.00409928,0.00394673
969.0,0.00431542,596.628,2036.14,2035.79,0.00407074,0.00391819
972.0,0.00348372,596.793,2040.77,2040.42,0.00314444,0.00299189
975.0,0.00341194,596.958,2045.4,2045.05,0.00239012,0.00223757
978.0,0.0023575,597.123,2050.03,2049.67,0.0023575,0.00220495
981.0,0.00157163,597.288,2054.66,2054.29,0.00218401,0.00203146
984.0,0.00271756,597.453,2059.28,2058.91,0.00271756,0.002565
987.0,0.00401001,597.618,2063.9,2063.52,0.00355579,0.00340323
990.0,0.00313874,597.783,2068.52,2068.13,0.00396478,0.00381222
993.0,0.0037354,597.948,2073.14,2072.74,0.00399274,0.00384018
996.0,0.00574506,598.113,2077.75,2077.35,0.00483514,0.00468258
999.0,0.0025972,598.278,2082.36,2081.95,0.00311038,0.00295782
1002.0,0.00522946,598.443,2086.97,2086.56,0.00422494,0.00407238
1005.0,0.00311619,598.608,2091.57,2091.16,0.003277,0.00312444
1008.0,0.00493671,598.773,2096.18,2095.75,0.00407517,0.00392261
1011.0,0.00217344,598.938,2100.78,2100.35,0.00407517,0.00392261
1014.0,0.0046898,599.103,2105.38,2104.94,0.00343155,0.00327899
1017.0,0.00305573,599.268,2109.97,2109.53,0.00343155,0.00327898
1020.0,0.00407674,599.433,2114.56,2114.12,0.00454583,0.00439326
1023.0,0.00411814,599.598,2119.15,2118.7,0.00411814,0.00396557
1026.0,0.00274047,599.763,2123.74,2123.28,0.00274047,0.0025879
1029.0,0.00351739,599.928,2128.33,2127.86,0.00327587,0.0031233
1032.0,0.00255479,600.093,2132.91,2132.44,0.00327587,0.0031233
1035.0,0.00377426,600.258,2137.49,2137.01,0.00323492,0.00308235
1038.0,0.00199381,600.423,2142.07,2141.59,0.00318179,0.00302922
1041.0,0.00327129,600.588,2146.64,2146.15,0.00327129,0.00311872
1044.0,0.00120096,600.753,2151.22,2150.72,0.0017682,0.00161563
1047.0,0.00188948,600.918,2155.79,2155.29,0.0017682,0.00161563
1050.0,0.00208667,601.083,2160.35,2159.85,0.00230374,0.00215116
1053.0,0.00328792,601.248,2164.92,2164.41,0.00328792,0.00313534
1056.0,0.00368046,601.413,2169.48,2168.96,0.00369305,0.00354047
1059.0,0.00478409,601.578,2174.04,2173.52,0.00451322,0.00436064
1062.0,0.00302514,601.743,2178.6,2178.07,0.00302514,0.00287256
1065.0,0.00335974,601.908,2183.16,2182.62,0.00335974,0.00320716
1068.0,0.00250721,602.073,2187.71,2187.17,0.00281204,0.00265946
1071.0,0.00311957,602.238,2192.26,2191.71,0.00357699,0.00342441
1074.0,0.00514492,602.403,2196.81,2196.25,0.00367971,0.00352713
1077.0,0.00181133,602.568,2201.35,2200.79,0.00350779,0.00335521
1080.0,0.00403203,602.733,2205.89,2205.33,0.00403203,0.00387945
1083.0,0.00487029,602.898,2210.43,2209.86,0.0042657,0.00411311
1086.0,0.00456108,603.063,2214.97,2214.4,0.00456108,0.00440849
1089.0,0.00573506,603.228,2219.51,2218.92,0.00413865,0.00398606
1092.0,0.00228253,603.393,2224.04,2223.45,0.00397261,0.00382002
1095.0,0.00491226,603.558,2228.57,2227.98,0.00434707,0.00419448
1098.0,0.00304059,603.723,2233.1,2232.5,0.00304059,0.002888
1101.0,0.00290542,603.888,2237.62,2237.02,0.00290542,0.00275283
1104.0,0.00406423,604.053,2242.15,2241.54,0.00406423,0.00391164
1107.0,0.00288537,604.218,2246.67,2246.05,0.00197565,0.00182306
1110.0,0.00192626,604.383,2251.19,2250.56,0.00197565,0.00182306
1113.0,0.00536787,604.548,2255.7,2255.07,0.00441293,0.00426034
1116.0,0.00336202,604.713,2260.21,2259.58,0.00336202,0.00320942
1119.0,0.0035596,604.878,2264.72,2264.08,0.00317228,0.00301968
1122.0,0.00290878,605.043,2269.23,2268.59,0.003245,0.0030924
1125.0,0.00302094,605.208,2273.74,2273.09,0.00323406,0.00308146
1128.0,0.00317583,605.373,2278.24,2277.58,0.00317583,0.00302323
1131.0,0.00377326,605.538,2282.74,2282.08,0.00301995,0.00286735
1134.0,0.00324763,605.703,2287.24,2286.57,0.00324763,0.00309503
1137.0,0.00203842,605.868,2291.74,2291.06,0.00333803,0.00318543
1140.0,0.00265115,606.033,2296.23,2295.55,0.00333803,0.00318543
1143.0,0.00562905,606.198,2300.72,2300.03,0.00495133,0.00479873
1146.0,0.00534458,606.363,2305.21,2304.52,0.00495133,0.00479873
1149.0,0.00375396,606.528,2309.7,2309,0.00375396,0.00360135
1152.0,0.00210231,606.693,2314.18,2313.47,0.00268786,0.00253525
1155.0,0.00405792,606.858,2318.66,2317.95,0.00396597,0.00381336
1158.0,0.00534825,607.023,2323.14,2322.42,0.00408156,0.00392895
1161.0,0.00236607,607.188,2327.62,2326.89,0.0026558,0.00250319
1164.0,0.00269511,607.353,2332.09,2331.36,0.00269511,0.0025425
1167.0,0.00314318,607.518,2336.56,2335.83,0.00327406,0.00312145
1170.0,0.00245601,607.682,2341.03,2340.29,0.00289835,0.00274574
1173.0,0.00425301,607.847,2345.5,2344.75,0.00289835,0.00274574
1176.0,0.00263812,608.012,2349.96,2349.21,0.00275698,0.00260437
1179.0,0.00494175,608.177,2354.42,2353.67,0.00494175,0.00478914
1182.0,0.00441028,608.342,2358.88,2358.12,0.00441028,0.00425766
1185.0,0.00190736,608.507,2363.34,2362.57,0.00227372,0.0021211
1188.0,0.00414085,608.672,2367.79,2367.02,0.0040801,0.00392748
1191.0,0.00206216,608.837,2372.25,2371.47,0.00215955,0.00200693
1194.0,0.00410647,609.002,2376.7,2375.91,0.00381031,0.00365769
1197.0,0.00529934,609.167,2381.14,2380.35,0.00443543,0.00428281
1200.0,0.0032268,609.332,2385.59,2384.79,0.0032268,0.00307418
1203.0,0.000424888,609.497,2390.03,2389.23,0.00104113,0.000888509
1206.0,0.00274697,609.662,2394.47,2393.66,0.00252714,0.00237452
1209.0,0.00431833,609.827,2398.91,2398.09,0.00423878,0.00408616
1212.0,0.0041929,609.992,2403.34,2402.52,0.00468414,0.00453152
1215.0,0.00284676,610.157,2407.78,2406.95,0.00284676,0.00269414
1218.0,0.00216289,610.322,2412.21,2411.38,0.0023766,0.00222398
1221.0,0.00266315,610.487,2416.63,2415.8,0.00318211,0.00302949
1224.0,0.00310238,610.652,2421.06,2420.22,0.00344405,0.00329143
1227.0,0.0023026,610.817,2425.48,2424.64,0.0023026,0.00214998
1230.0,0.00191483,610.982,2429.9,2429.05,0.0020095,0.00185688
1233.0,0.00302856,611.147,2434.32,2433.46,0.00346808,0.00331546
1236.0,0.00384933,611.312,2438.74,2437.87,0.00377315,0.00362053
1239.0,0.00358368,611.477,2443.15,2442.28,0.00360208,0.00344946
1242.0,0.00561607,611.642,2447.56,2446.69,0.00360794,0.00345532
1245.0,0.00146549,611.807,2451.97,2451.09,0.00351024,0.00335762
1248.0,0.00572876,611.972,2456.38,2455.49,0.00441035,0.00425773
1251.0,0.00293016,612.137,2460.78,2459.89,0.00351608,0.00336346
1254.0,0.00505719,612.302,2465.19,2464.29,0.00441328,0.00426066
1257.0,0.00395543,612.467,2469.59,2468.68,0.00399812,0.00384551
1260.0,0.00448944,612.632,2473.98,2473.07,0.0034427,0.00329009
1263.0,0.00114768,612.797,2478.38,2477.46,0.00214563,0.00199302
1266.0,0.00347923,612.962,2482.77,2481.85,0.00337852,0.00322591
1269.0,0.00239584,613.127,2487.16,2486.23,0.00337852,0.00322591
1272.0,0.00412927,613.292,2491.55,2490.61,0.00412927,0.00397666
1275.0,0.00434596,613.457,2495.93,2494.99,0.00386376,0.00371115
1278.0,0.00176722,613.622,2500.32,2499.37,0.00176722,0.00161461
1281.0,0.00176727,613.787,2504.7,2503.75,0.00176727,0.00161466
1284.0,0.00254554,613.952,2509.07,2508.12,0.00263097,0.00247836
1287.0,0.00559436,614.117,2513.45,2512.49,0.00549066,0.00533805
1290.0,0.00278069,614.282,2517.82,2516.86,0.00278069,0.00262808
1293.0,0.00445318,614.447,2522.19,2521.22,0.00348884,0.00333623
1296.0,0.00333022,614.612,2526.56,2525.59,0.00394982,0.00379721
1299.0,0.00445647,614.777,2530.93,2529.95,0.00394982,0.00379721
1302.0,0.00145668,614.942,2535.29,2534.3,0.00302846,0.00287585
1305.0,0.00516783,615.107,2539.66,2538.66,0.00412422,0.00397161
1308.0,0.00175302,615.272,2544.02,2543.01,0.00234824,0.00219563
1311.0,0.00319976,615.437,2548.37,2547.37,0.00302586,0.00287325
1314.0,0.00370349,615.602,2552.73,2551.72,0.00302586,0.00287325
1317.0,0.00423776,615.767,2557.08,2556.06,0.00349937,0.00334676
1320.0,0.00316069,615.932,2561.43,2560.41,0.00349937,0.00334676
1323.0,0.00402458,616.097,2565.78,2564.75,0.00402458,0.00387197
1326.0,0.00502276,616.262,2570.12,2569.09,0.00399438,0.00384177
1329.0,0.00190406,616.427,2574.47,2573.43,0.00272509,0.00257248
1332.0,0.000488291,616.592,2578.81,2577.76,0.00129406,0.00114145
1335.0,0.00210602,616.757,2583.15,2582.09,0.00210602,0.00195341
1338.0,0.00532902,616.922,2587.48,2586.42,0.00532902,0.00517642
1341.0,0.00489291,617.087,2591.82,2590.75,0.00489291,0.00474031
1344.0,0.00488711,617.252,2596.15,2595.08,0.00374248,0.00358988
1347.0,0.00308687,617.417,2600.48,2599.4,0.0027818,0.0026292
1350.0,0.00370977,617.582,2604.8,2603.72,0.00370977,0.00355717
1353.0,0.00208961,617.747,2609.13,2608.04,0.00394804,0.00379544
1356.0,0.00478166,617.912,2613.45,2612.36,0.00478166,0.00462906
1359.0,0.00310354,618.077,2617.77,2616.67,0.00310354,0.00295094
1362.0,0.00209073,618.242,2622.09,2620.99,0.00209073,0.00193813
1365.0,0.0033973,618.407,2626.4,2625.3,0.00315648,0.00300388
1368.0,0.0018657,618.572,2630.72,2629.6,0.00214355,0.00199095
1371.0,0.00240629,618.737,2635.03,2633.91,0.00203411,0.00188151
1374.0,0.00258067,618.902,2639.34,2638.21,0.00258067,0.00242807
1377.0,0.004165,619.067,2643.64,2642.51,0.00346323,0.00331063
1380.0,0.00217262,619.232,2647.95,2646.81,0.00217262,0.00202002
1383.0,0.00242943,619.397,2652.25,2651.11,0.00242943,0.00227683
1386.0,0.0036563,619.562,2656.55,2655.4,0.0036563,0.0035037
1389.0,0.0045296,619.727,2660.84,2659.69,0.0035466,0.003394
1392.0,0.0020215,619.892,2665.14,2663.98,0.00203693,0.00188433
1395.0,0.00478999,620.057,2669.43,2668.27,0.00402415,0.00387155
1398.0,0.00349653,620.222,2673.72,2672.55,0.00349653,0.00334393
1401.0,0.00196199,620.387,2678.01,2676.84,0.00196199,0.00180939
1404.0,0.0025271,620.551,2682.29,2681.12,0.00178821,0.00163561
1407.0,0.0,620.716,2686.58,2685.39,0.00107174,0.000919144
1410.0,0.00305919,620.881,2690.86,2689.67,0.00305919,0.00290659
1413.0,0.00386847,621.046,2695.14,2693.94,0.00425013,0.00409753
1416.0,0.00435427,621.211,2699.41,2698.21,0.00425013,0.00409753
1419.0,0.00107109,621.376,2703.69,2702.48,0.00107109,0.000918494
1422.0,0.00127614,621.541,2707.96,2706.75,0.00125802,0.00110542
1425.0,0.00318105,621.706,2712.23,2711.01,0.00273588,0.00258328
1428.0,0.000959925,621.871,2716.5,2715.27,0.00177517,0.00162257
1431.0,0.00385671,622.036,2720.76,2719.53,0.00335337,0.00320077
1434.0,0.0027007,622.201,2725.03,2723.79,0.00335337,0.00320077
1437.0,0.00524043,622.366,2729.29,2728.05,0.00356478,0.00341218
1440.0,0.00343441,622.531,2733.54,2732.3,0.00343441,0.00328181
1443.0,0.00535159,622.696,2737.8,2736.55,0.00454875,0.00439615
1446.0,0.00521796,622.861,2742.05,2740.8,0.004833,0.0046804
1449.0,0.00164191,623.026,2746.31,2745.04,0.00195342,0.00180082
1452.0,0.000751455,623.191,2750.56,2749.29,0.00139256,0.00123996
1455.0,0.00325461,623.356,2754.8,2753.53,0.00233952,0.00218692
1458.0,0.00260831,623.521,2759.05,2757.77,0.00260831,0.00245571
1461.0,0.00195286,623.686,2763.29,2762.01,0.00299635,0.00284375
1464.0,0.00542346,623.851,2767.53,2766.24,0.00390038,0.00374778
1467.0,0.00159415,624.016,2771.77,2770.47,0.00161879,0.00146619
1470.0,0.00224489,624.181,2776,2774.7,0.00197046,0.00181786
1473.0,0.00301465,624.346,2780.24,2778.93,0.00301465,0.00286205
1476.0,0.00250572,624.511,2784.47,2783.16,0.00253368,0.00238108
1479.0,0.00323279,624.676,2788.7,2787.38,0.00323279,0.00308019
1482.0,0.00330372,624.841,2792.93,2791.6,0.00344996,0.00329736
1485.0,0.00313967,625.006,2797.15,2795.82,0.00326834,0.00311574
1488.0,0.00314347,625.171,2801.37,2800.04,0.00314347,0.00299087
1491.0,0.00413606,625.336,2805.59,2804.25,0.00295857,0.00280597
1494.0,0.00137189,625.501,2809.81,2808.47,0.00304682,0.00289422
1497.0,0.00555973,625.666,2814.03,2812.68,0.00360937,0.00345677
1500.0,0.00289627,625.831,2818.24,2816.89,0.00289627,0.00274367
1503.0,0.00217987,625.996,2822.45,2821.09,0.00217987,0.00202727
1506.0,0.00240038,626.161,2826.66,2825.3,0.00282432,0.00267172
1509.0,0.00357611,626.326,2830.87,2829.5,0.00229383,0.00214123
1512.0,0.00137044,626.491,2835.07,2833.7,0.00220027,0.00204767
1515.0,0.00256754,626.656,2839.27,2837.89,0.00268682,0.00253422
1518.0,0.00282773,626.821,2843.48,2842.09,0.00267488,0.00252228
1521.0,0.00287431,626.986,2847.67,2846.28,0.00287431,0.00272171
1524.0,0.00301329,627.151,2851.87,2850.47,0.00321192,0.00305932
1527.0,0.00211991,627.316,2856.06,2854.66,0.00250417,0.00235157
1530.0,0.00490091,627.481,2860.25,2858.85,0.0040561,0.0039035
1533.0,0.00279902,627.646,2864.44,2863.03,0.00279902,0.00264642
1536.0,0.00175307,627.811,2868.63,2867.21,0.00175307,0.00160047
1539.0,0.0032279,627.976,2872.82,2871.39,0.00289166,0.00273906
1542.0,0.00159295,628.141,2877,2875.57,0.00159295,0.00144035
1545.0,0.00493854,628.306,2881.18,2879.74,0.00377914,0.00362654
1548.0,0.00105139,628.471,2885.36,2883.92,0.00105139,0.000898793
1551.0,0.0,628.636,2889.53,2888.09,0.000493198,0.000340601
1554.0,0.00519132,628.801,2893.71,2892.26,0.00386711,0.00371451
1557.0,0.00503649,628.966,2897.88,2896.42,0.00503649,0.00488389
1560.0,0.00412786,629.131,2902.05,2900.59,0.00401243,0.00385983
1563.0,0.00259971,629.296,2906.21,2904.75,0.00259971,0.00244711
1566.0,0.00338789,629.461,2910.38,2908.91,0.00173632,0.00158372
1569.0,0.000159894,629.626,2914.54,2913.06,0.00143833,0.00128573
1572.0,0.00341393,629.791,2918.7,2917.22,0.00341393,0.00326133
1575.0,0.00346968,629.956,2922.86,2921.37,0.00346968,0.00331708
1578.0,0.00295471,630.121,2927.02,2925.52,0.00268364,0.00253104
1581.0,0.00296468,630.286,2931.17,2929.67,0.00350539,0.00335279
1584.0,0.00182412,630.451,2935.32,2933.82,0.00252658,0.00237398
1587.0,0.00166014,630.616,2939.47,2937.96,0.00215202,0.00199942
1590.0,0.002253,630.781,2943.62,2942.11,0.00259813,0.00244553
1593.0,0.00337993,630.946,2947.77,2946.25,0.00311788,0.00296528
1596.0,0.00299842,631.111,2951.91,2950.38,0.00311788,0.00296528
1599.0,0.00270321,631.276,2956.05,2954.52,0.00270321,0.00255061
1602.0,0.00392474,631.441,2960.19,2958.65,0.0028996,0.002747
1605.0,0.00337012,631.606,2964.33,2962.79,0.0028996,0.002747
1608.0,0.00074333,631.771,2968.46,2966.92,0.00074333,0.000590726
1611.0,0.00131483,631.936,2972.6,2971.04,0.00130845,0.00115585
1614.0,0.00259129,632.101,2976.73,2975.17,0.00259129,0.00243869
1617.0,0.00202751,632.266,2980.85,2979.29,0.00312867,0.00297607
1620.0,0.00443619,632.431,2984.98,2983.41,0.00317857,0.00302597
1623.0,0.00191314,632.596,2989.1,2987.53,0.00244469,0.00229209
1626.0,0.00142566,632.761,2993.23,2991.65,0.00244469,0.00229209
1629.0,0.00239387,632.926,2997.35,2995.76,0.0028125,0.0026599
1632.0,0.00378629,633.091,3001.46,2999.87,0.00302891,0.00287631
1635.0,0.00343918,633.256,3005.58,3003.98,0.00343918,0.00328658
1638.0,0.00423344,633.421,3009.69,3008.09,0.0032144,0.0030618
1641.0,0.00203387,633.585,3013.8,3012.2,0.00204416,0.00189156
1644.0,0.00316505,633.75,3017.91,3016.3,0.00267729,0.00252469
1647.0,0.00292169,633.915,3022.02,3020.4,0.00269638,0.00254378
1650.0,0.00310863,634.08,3026.12,3024.5,0.0030359,0.0028833
1653.0,0.00317349,634.245,3030.23,3028.6,0.00317349,0.00302089
1656.0,0.00307965,634.41,3034.33,3032.69,0.00354301,0.00339041
1659.0,0.00487183,634.575,3038.42,3036.79,0.00401376,0.00386116
1662.0,0.00372511,634.74,3042.52,3040.88,0.00339832,0.00324572
1665.0,0.00321317,634.905,3046.61,3044.97,0.00321317,0.00306057
1668.0,0.00176127,635.07,3050.71,3049.05,0.00180119,0.00164859
1671.0,0.00237848,635.235,3054.8,3053.14,0.00237848,0.00222588
1674.0,0.00297738,635.4,3058.88,3057.22,0.00262667,0.00247407
1677.0,0.00281638,635.565,3062.97,3061.3,0.00281638,0.00266379
1680.0,0.00144685,635.73,3067.05,3065.38,0.00178915,0.00163656
1683.0,0.00278428,635.895,3071.13,3069.45,0.00178915,0.00163656
1686.0,0.000923405,636.06,3075.21,3073.53,0.000923405,0.000770812
1689.0,0.0,636.225,3079.29,3077.6,0.00130536,0.00115277
1692.0,0.00360737,636.39,3083.36,3081.67,0.00250614,0.00235355
1695.0,0.00268643,636.555,3087.44,3085.74,0.00250614,0.00235355
1698.0,0.005272,636.72,3091.51,3089.8,0.00513513,0.00498254
1701.0,0.00405807,636.885,3095.58,3093.87,0.00405807,0.00390548
1704.0,0.001776,637.05,3099.64,3097.93,0.00182743,0.00167484
1707.0,0.00422423,637.215,3103.71,3101.99,0.00324177,0.00308918
1710.0,0.00350467,637.38,3107.77,3106.04,0.00350467,0.00335208
1713.0,0.00140614,637.545,3111.83,3110.1,0.00121282,0.00106023
1716.0,0.0019958,637.71,3115.89,3114.15,0.0019958,0.00184321
1719.0,0.00424869,637.875,3119.94,3118.2,0.0034992,0.00334661
1722.0,0.0018602,638.04,3124,3122.25,0.0018602,0.00170761
1725.0,0.00175708,638.205,3128.05,3126.3,0.00175708,0.00160449
1728.0,0.00259391,638.37,3132.1,3130.34,0.00220612,0.00205353
1731.0,0.000552886,638.535,3136.15,3134.38,0.00154188,0.00138929
1734.0,0.00389218,638.7,3140.19,3138.42,0.00227188,0.00211929
1737.0,0.00454589,638.865,3144.24,3142.46,0.00460062,0.00444803
1740.0,0.00406432,639.03,3148.28,3146.5,0.00406432,0.00391173
1743.0,0.000756766,639.195,3152.32,3150.53,0.00126662,0.00111403
1746.0,0.00284785,639.36,3156.35,3154.56,0.00301895,0.00286636
1749.0,0.00489621,639.525,3160.39,3158.59,0.00428013,0.00412754
1752.0,0.00395989,639.69,3164.42,3162.62,0.00395989,0.0038073
1755.0,0.00335621,639.855,3168.45,3166.65,0.00335621,0.00320362
1758.0,0.00195601,640.02,3172.48,3170.67,0.00195601,0.00180342
1761.0,2.74662e-05,640.185,3176.51,3174.69,3.68024e-05,-0.000115788
1764.0,0.00106905,640.35,3180.53,3178.71,0.00106905,0.00091646
1767.0,0.0034927,640.515,3184.55,3182.73,0.00266532,0.00251273
1770.0,0.00300797,640.68,3188.58,3186.74,0.0024522,0.00229961
1773.0,0.000582284,640.845,3192.59,3190.76,0.00186437,0.00171178
1776.0,0.0025695,641.01,3196.61,3194.77,0.00186437,0.00171178
1779.0,0.000769425,641.175,3200.62,3198.78,0.00145624,0.00130365
1782.0,0.00362334,641.34,3204.64,3202.78,0.00362334,0.00347075
1785.0,0.00187818,641.505,3208.65,3206.79,0.00275742,0.00260483
1788.0,0.0026416,641.67,3212.65,3210.79,0.0026416,0.00248901
1791.0,0.00111006,641.835,3216.66,3214.79,0.00111006,0.000957471
1794.0,0.00271576,642,3220.66,3218.79,0.00141279,0.0012602
1797.0,0.00350967,642.165,3224.67,3222.79,0.00333906,0.00318647
1800.0,0.00157832,642.33,3228.67,3226.78,0.00216761,0.00201502
1803.0,0.00240884,642.495,3232.66,3230.78,0.00216761,0.00201502
1806.0,0.00265646,642.66,3236.66,3234.77,0.00173468,0.00158209
1809.0,0.0,642.825,3240.65,3238.76,0.00124376,0.00109117
1812.0,0.0037895,642.99,3244.65,3242.74,0.0036982,0.00354561
1815.0,0.00288654,643.155,3248.64,3246.73,0.00288654,0.00273396
1818.0,0.00114129,643.32,3252.62,3250.71,0.00114129,0.000988706
1821.0,0.00423008,643.485,3256.61,3254.69,0.00328109,0.00312851
1824.0,0.000180695,643.65,3260.59,3258.67,0.000803382,0.000650798
1827.0,0.00218303,643.815,3264.57,3262.64,0.00213138,0.0019788
1830.0,0.00167983,643.98,3268.55,3266.62,0.0018357,0.00168312
1833.0,0.0018175,644.145,3272.53,3270.59,0.0018357,0.00168312
1836.0,0.00136006,644.31,3276.51,3274.56,0.00252302,0.00237044
1839.0,0.00238885,644.475,3280.48,3278.53,0.00179091,0.00163833
1842.0,0.00281031,644.64,3284.45,3282.5,0.00234665,0.00219407
1845.0,0.00455626,644.805,3288.42,3286.46,0.00455626,0.00440368
1848.0,0.00409574,644.97,3292.39,3290.42,0.00409574,0.00394316
1851.0,0.00278071,645.135,3296.35,3294.38,0.001844,0.00169142
1854.0,0.00153586,645.3,3300.31,3298.34,0.001844,0.00169142
1857.0,0.00303458,645.465,3304.28,3302.3,0.00290326,0.00275068
1860.0,0.00178888,645.63,3308.23,3306.25,0.00178888,0.0016363
1863.0,0.00148396,645.795,3312.19,3310.2,0.00162112,0.00146854
1866.0,0.00247912,645.96,3316.15,3314.15,0.00227447,0.00212189
1869.0,0.00184155,646.125,3320.1,3318.1,0.00162198,0.0014694
1872.0,0.000761458,646.29,3324.05,3322.05,0.00162198,0.0014694
1875.0,0.00229981,646.455,3328,3325.99,0.0019307,0.00177812
1878.0,0.00012106,646.619,3331.95,3329.93,0.000613413,0.000460838
1881.0,0.00293809,646.784,3335.89,3333.87,0.00261471,0.00246214
1884.0,0.00196168,646.949,3339.83,3337.81,0.00261471,0.00246214
1887.0,0.00264545,647.114,3343.78,3341.74,0.00215417,0.0020016
1890.0,0.00280432,647.279,3347.71,3345.68,0.00280432,0.00265175
1893.0,0.00440364,647.444,3351.65,3349.61,0.0039244,0.00377183
1896.0,0.00174264,647.609,3355.59,3353.54,0.00321355,0.00306098
1899.0,0.00447112,647.774,3359.52,3357.47,0.00447112,0.00431855
1902.0,0.00572557,647.939,3363.45,3361.39,0.00529536,0.00514279
1905.0,0.00354673,648.104,3367.38,3365.32,0.00400745,0.00385488
1908.0,0.00379712,648.269,3371.31,3369.24,0.0031623,0.00300973
1911.0,0.0029275,648.434,3375.23,3373.16,0.00313497,0.0029824
1914.0,0.00390726,648.599,3379.15,3377.08,0.00379748,0.00364491
1917.0,0.00472527,648.764,3383.07,3380.99,0.00472527,0.0045727
1920.0,0.0049787,648.929,3386.99,3384.91,0.00511294,0.00496037
1923.0,0.00453325,649.094,3390.91,3388.82,0.0053176,0.00516503
1926.0,0.00499114,649.259,3394.83,3392.73,0.00499114,0.00483857
1929.0,0.004741,649.424,3398.74,3396.64,0.00548554,0.00533297
1932.0,0.00470838,649.589,3402.65,3400.54,0.00548554,0.00533297
1935.0,0.0071133,649.754,3406.56,3404.45,0.00522427,0.0050717
1938.0,0.00456209,649.919,3410.47,3408.35,0.00469337,0.0045408
1941.0,0.00432108,650.084,3414.37,3412.25,0.00469337,0.0045408
1944.0,0.00559072,650.249,3418.27,3416.15,0.00559072,0.00543815
1947.0,0.00753174,650.414,3422.17,3420.04,0.00752264,0.00737007
1950.0,0.00426333,650.579,3426.07,3423.94,0.00426333,0.00411076
1953.0,0.0052705,650.744,3429.97,3427.83,0.0052705,0.00511793
1956.0,0.00622273,650.909,3433.87,3431.72,0.0060335,0.00588093
1959.0,0.00497155,651.074,3437.76,3435.61,0.00569485,0.00554228
1962.0,0.00540496,651.239,3441.65,3439.49,0.00569485,0.00554228
1965.0,0.00682105,651.404,3445.54,3443.38,0.00565223,0.00549966
1968.0,0.00700116,651.569,3449.43,3447.26,0.00700116,0.00684859
1971.0,0.00697068,651.734,3453.31,3451.14,0.00697068,0.00681811
1974.0,0.00543872,651.899,3457.2,3455.02,0.00543872,0.00528615
1977.0,0.00459646,652.064,3461.08,3458.89,0.00459646,0.00444389
1980.0,0.00623408,652.229,3464.96,3462.77,0.00623408,0.00608151
1983.0,0.00485775,652.394,3468.83,3466.64,0.00485775,0.00470518
1986.0,0.00750063,652.559,3472.71,3470.51,0.00750063,0.00734806
1989.0,0.00787603,652.724,3476.58,3474.38,0.00815986,0.00800729
1992.0,0.0101344,652.889,3480.45,3478.25,0.00926158,0.00910901
1995.0,0.0106929,653.054,3484.32,3482.11,0.00980785,0.00965528
1998.0,0.0100306,653.219,3488.19,3485.97,0.00939587,0.0092433
2001.0,0.00488837,653.384,3492.06,3489.83,0.00560554,0.00545297
2004.0,0.00739391,653.549,3495.92,3493.69,0.00739391,0.00724134
2007.0,0.00999405,653.714,3499.78,3497.55,0.00999405,0.00984148
2010.0,0.00971023,653.879,3503.64,3501.4,0.00971023,0.00955766
2013.0,0.00916395,654.044,3507.5,3505.26,0.00827893,0.00812636
2016.0,0.00674692,654.209,3511.36,3509.11,0.00681406,0.00666149
2019.0,0.00908459,654.374,3515.21,3512.96,0.00868785,0.00853528
2022.0,0.00756173,654.539,3519.06,3516.8,0.00756173,0.00740916
2025.0,0.00751899,654.704,3522.91,3520.65,0.0072596,0.00710703
2028.0,0.00545901,654.869,3526.76,3524.49,0.00562992,0.00547735
2031.0,0.00889839,655.034,3530.61,3528.33,0.00851385,0.00836128
2034.0,0.00981697,655.199,3534.45,3532.17,0.00880681,0.00865424
2037.0,0.00679261,655.364,3538.29,3536.01,0.00862368,0.00847111
2040.0,0.0104364,655.529,3542.13,3539.85,0.0104364,0.0102838
2043.0,0.0094568,655.694,3545.97,3543.68,0.0094568,0.00930423
2046.0,0.00752498,655.859,3549.81,3547.51,0.00752498,0.00737241
2047.0,0.00784541,655.914,3551.09,3548.79,0.00750058,0.00734801